subj,item,resp,isCorrect,RT,duration,type,trial,time,levDist,rep,alpha,fixedRT,estRT,repetition,userId,code,Subject2,Subject,id,participant,SOF,maxRepetition,finalSOF,t
1501,3,fish,TRUE,2295,3.131,study,1,3.131,0,1,0.3,0.3,Inf,0,sub-001,1501,sub-001,sub-001,1,sub-01,0.3,4,0.2504,3.131
1501,12,book,TRUE,3128,4.821999999999999,study,3,10.248,0,1,0.3,0.3,Inf,0,sub-001,1501,sub-001,sub-001,1,sub-01,0.3,16,0.5301,10.248
1501,2,beer,TRUE,4203,6.048000000000002,study,5,18.824,0,1,0.3,0.3,Inf,0,sub-001,1501,sub-001,sub-001,1,sub-01,0.3,4,0.2504,18.824
1501,9,police,TRUE,2456,4.988999999999997,study,6,23.813,0,1,0.3,0.3,Inf,0,sub-001,1501,sub-001,sub-001,1,sub-01,0.3,7,0.35,23.813
1501,22,fruit,TRUE,2544,4.782,study,9,33.976,0,1,0.3,0.3,Inf,0,sub-001,1501,sub-001,sub-001,1,sub-01,0.3,4,0.2895,33.976
1501,5,office,TRUE,2128,4.596000000000004,study,10,38.572,0,1,0.3,0.3,Inf,0,sub-001,1501,sub-001,sub-001,1,sub-01,0.3,16,0.466,38.572
1501,14,voice,TRUE,2391,3.926000000000002,study,14,52.398,0,1,0.3,0.3,Inf,0,sub-001,1501,sub-001,sub-001,1,sub-01,0.3,3,0.2008,52.398
1501,23,pain,TRUE,2084,4.341999999999999,study,17,69.167,0,1,0.3,0.3,Inf,0,sub-001,1501,sub-001,sub-001,1,sub-01,0.3,4,0.2504,69.167
1501,8,music,TRUE,1842,3.739000000000004,study,18,72.906,0,1,0.3,0.3,Inf,0,sub-001,1501,sub-001,sub-001,1,sub-01,0.3,7,0.3492,72.906
1501,10,cloud,TRUE,1919,7.055000000000007,study,33,161.306,0,1,0.3,0.3,Inf,0,sub-001,1501,sub-001,sub-001,1,sub-01,0.3,5,0.3289,161.306
1501,18,friend,TRUE,2575,4.371999999999986,study,38,184.789,0,1,0.3,0.3,Inf,0,sub-001,1501,sub-001,sub-001,1,sub-01,0.3,3,0.2008,184.789
1501,11,chicken,TRUE,2329,4.280000000000001,study,39,189.069,0,1,0.3,0.3,Inf,0,sub-001,1501,sub-001,sub-001,1,sub-01,0.3,4,0.2504,189.069
1501,25,language,TRUE,2043,4.287000000000006,study,42,198.138,0,1,0.3,0.3,Inf,0,sub-001,1501,sub-001,sub-001,1,sub-01,0.3,3,0.2008,198.138
1501,15,thanks,TRUE,3596,5.336999999999989,study,48,229.777,0,1,0.3,0.3,Inf,0,sub-001,1501,sub-001,sub-001,1,sub-01,0.3,4,0.2504,229.777
1501,20,bike,TRUE,2745,3.9650000000000034,study,49,233.742,0,1,0.3,0.3,Inf,0,sub-001,1501,sub-001,sub-001,1,sub-01,0.3,4,0.2504,233.742
1501,7,eye,TRUE,2055,3.960000000000037,study,58,280.127,0,1,0.3,0.3,Inf,0,sub-001,1501,sub-001,sub-001,1,sub-01,0.3,4,0.2504,280.127
1501,16,work,TRUE,1148,2.444999999999993,study,59,282.572,0,1,0.3,0.3,Inf,0,sub-001,1501,sub-001,sub-001,1,sub-01,0.3,6,0.3816,282.572
1501,19,wheel,TRUE,1761,3.2350000000000136,study,69,321.524,0,1,0.3,0.3,Inf,0,sub-001,1501,sub-001,sub-001,1,sub-01,0.3,3,0.2008,321.524
1501,13,song,TRUE,1417,2.512999999999977,study,70,324.037,0,1,0.3,0.3,Inf,0,sub-001,1501,sub-001,sub-001,1,sub-01,0.3,4,0.2746,324.037
1501,4,pants,TRUE,2827,4.471000000000004,study,97,486.365,0,1,0.3,0.3,Inf,0,sub-001,1501,sub-001,sub-001,1,sub-01,0.3,2,0.2504,486.365
1501,21,color,TRUE,1614,3.664999999999963,study,98,490.03,0,1,0.3,0.3,Inf,0,sub-001,1501,sub-001,sub-001,1,sub-01,0.3,6,0.3488,490.03
1501,6,monkey,TRUE,1730,3.2690000000000055,study,103,508.288,0,1,0.3,0.3,Inf,0,sub-001,1501,sub-001,sub-001,1,sub-01,0.3,6,0.448,508.288
1501,24,shop,TRUE,1416,2.673999999999978,study,104,510.962,0,1,0.3,0.3,Inf,0,sub-001,1501,sub-001,sub-001,1,sub-01,0.3,2,0.2504,510.962
1501,1,enemy,TRUE,2003,3.6510000000000673,study,108,524.206,0,1,0.3,0.3,Inf,0,sub-001,1501,sub-001,sub-001,1,sub-01,0.3,2,0.2504,524.206
1501,17,holidays,TRUE,1915,4.190999999999917,study,120,581.915,0,1,0.3,0.3,Inf,0,sub-001,1501,sub-001,sub-001,1,sub-01,0.3,3,0.275,581.915
1502,14,voice,TRUE,2173,3.191,study,1,3.191,0,1,0.3,0.3,Inf,0,sub-002,1502,sub-002,sub-002,2,sub-02,0.3,12,0.3277,3.191
1502,3,fish,TRUE,1642,2.797999999999999,study,3,8.142,0,1,0.3,0.3,Inf,0,sub-002,1502,sub-002,sub-002,2,sub-02,0.3,5,0.1672,8.142
1502,7,eye,TRUE,1319,2.933,study,5,12.814,0,1,0.3,0.3,Inf,0,sub-002,1502,sub-002,sub-002,2,sub-02,0.3,6,0.1512,12.814
1502,13,song,TRUE,1441,2.6799999999999997,study,6,15.494,0,1,0.3,0.3,Inf,0,sub-002,1502,sub-002,sub-002,2,sub-02,0.3,16,0.3559,15.494
1502,9,police,TRUE,1207,2.823999999999998,study,9,21.798,0,1,0.3,0.3,Inf,0,sub-002,1502,sub-002,sub-002,2,sub-02,0.3,7,0.25,21.798
1502,23,pain,TRUE,1312,2.7040000000000006,study,10,24.502,0,1,0.3,0.3,Inf,0,sub-002,1502,sub-002,sub-002,2,sub-02,0.3,6,0.1754,24.502
1502,19,wheel,TRUE,1304,2.8329999999999984,study,13,37.719,0,1,0.3,0.3,Inf,0,sub-002,1502,sub-002,sub-002,2,sub-02,0.3,6,0.2566,37.719
1502,17,holidays,TRUE,1832,3.536000000000002,study,14,41.255,0,1,0.3,0.3,Inf,0,sub-002,1502,sub-002,sub-002,2,sub-02,0.3,11,0.3789,41.255
1502,24,shop,TRUE,1350,2.7169999999999987,study,26,102.111,0,1,0.3,0.3,Inf,0,sub-002,1502,sub-002,sub-002,2,sub-02,0.3,10,0.3191,102.111
1502,11,chicken,TRUE,1294,3.742999999999995,study,29,111.274,0,1,0.3,0.3,Inf,0,sub-002,1502,sub-002,sub-002,2,sub-02,0.3,5,0.1695,111.274
1502,25,language,TRUE,1366,3.087999999999994,study,30,114.362,0,1,0.3,0.3,Inf,0,sub-002,1502,sub-002,sub-002,2,sub-02,0.3,5,0.2008,114.362
1502,15,thanks,TRUE,1554,2.948999999999998,study,33,122.451,0,1,0.3,0.3,Inf,0,sub-002,1502,sub-002,sub-002,2,sub-02,0.3,7,0.2484,122.451
1502,1,enemy,TRUE,1614,3.385000000000005,study,34,125.836,0,1,0.3,0.3,Inf,0,sub-002,1502,sub-002,sub-002,2,sub-02,0.3,11,0.2883,125.836
1502,6,monkey,TRUE,1490,4.295999999999992,study,37,134.745,0,1,0.3,0.3,Inf,0,sub-002,1502,sub-002,sub-002,2,sub-02,0.3,6,0.2004,134.745
1502,5,office,TRUE,1329,2.9410000000000025,study,38,137.686,0,1,0.3,0.3,Inf,0,sub-002,1502,sub-002,sub-002,2,sub-02,0.3,7,0.25,137.686
1502,21,color,TRUE,1267,2.7930000000000064,study,41,145.776,0,1,0.3,0.3,Inf,0,sub-002,1502,sub-002,sub-002,2,sub-02,0.3,5,0.2008,145.776
1502,2,beer,TRUE,1131,2.526999999999987,study,42,148.303,0,1,0.3,0.3,Inf,0,sub-002,1502,sub-002,sub-002,2,sub-02,0.3,5,0.225,148.303
1502,10,cloud,TRUE,1279,4.275000000000006,study,56,223.805,0,1,0.3,0.3,Inf,0,sub-002,1502,sub-002,sub-002,2,sub-02,0.3,9,0.332,223.805
1502,16,work,TRUE,1916,3.4609999999999843,study,57,227.266,0,1,0.3,0.3,Inf,0,sub-002,1502,sub-002,sub-002,2,sub-02,0.3,9,0.2516,227.266
1502,18,friend,TRUE,1332,2.9799999999999898,study,63,258.327,0,1,0.3,0.3,Inf,0,sub-002,1502,sub-002,sub-002,2,sub-02,0.3,4,0.1512,258.327
1502,4,pants,TRUE,2656,4.182999999999993,study,64,262.51,0,1,0.3,0.3,Inf,0,sub-002,1502,sub-002,sub-002,2,sub-02,0.3,4,0.1512,262.51
1502,22,fruit,TRUE,1207,4.126000000000033,study,71,296.665,0,1,0.3,0.3,Inf,0,sub-002,1502,sub-002,sub-002,2,sub-02,0.3,8,0.2355,296.665
1502,8,music,TRUE,1462,2.9799999999999613,study,74,308.114,0,1,0.3,0.3,Inf,0,sub-002,1502,sub-002,sub-002,2,sub-02,0.3,4,0.1512,308.114
1502,20,bike,TRUE,4594,6.4909999999999854,study,83,343.536,0,1,0.3,0.3,Inf,0,sub-002,1502,sub-002,sub-002,2,sub-02,0.3,6,0.2004,343.536
1502,12,book,TRUE,1931,3.3210000000000264,study,84,346.857,0,1,0.3,0.3,Inf,0,sub-002,1502,sub-002,sub-002,2,sub-02,0.3,9,0.2836,346.857
1503,13,song,TRUE,4018,4.612,study,1,4.612,0,1,0.3,0.3,Inf,0,sub-003,1503,sub-003,sub-003,3,sub-03,0.3,9,0.2633,4.612
1503,12,book,TRUE,2226,3.359,study,3,10.099,0,1,0.3,0.3,Inf,0,sub-003,1503,sub-003,sub-003,3,sub-03,0.3,16,0.3434,10.099
1503,18,friend,TRUE,1755,3.087999999999999,study,5,15.091,0,1,0.3,0.3,Inf,0,sub-003,1503,sub-003,sub-003,3,sub-03,0.3,4,0.1512,15.091
1503,3,fish,TRUE,1635,4.6,study,6,19.691,0,1,0.3,0.3,Inf,0,sub-003,1503,sub-003,sub-003,3,sub-03,0.3,9,0.2383,19.691
1503,24,shop,TRUE,1291,2.776,study,9,28.547,0,1,0.3,0.3,Inf,0,sub-003,1503,sub-003,sub-003,3,sub-03,0.3,10,0.2848,28.547
1503,19,wheel,TRUE,2651,4.001000000000001,study,10,32.548,0,1,0.3,0.3,Inf,0,sub-003,1503,sub-003,sub-003,3,sub-03,0.3,10,0.2723,32.548
1503,23,pain,TRUE,2907,4.216000000000001,study,13,40.932,0,1,0.3,0.3,Inf,0,sub-003,1503,sub-003,sub-003,3,sub-03,0.3,4,0.1512,40.932
1503,5,office,TRUE,2091,3.4239999999999995,study,14,44.356,0,1,0.3,0.3,Inf,0,sub-003,1503,sub-003,sub-003,3,sub-03,0.3,4,0.1527,44.356
1503,9,police,TRUE,3283,8.216000000000008,study,27,119.819,0,1,0.3,0.3,Inf,0,sub-003,1503,sub-003,sub-003,3,sub-03,0.3,5,0.1969,119.819
1503,25,language,TRUE,1940,3.5279999999999916,study,28,123.347,0,1,0.3,0.3,Inf,0,sub-003,1503,sub-003,sub-003,3,sub-03,0.3,4,0.1512,123.347
1503,17,holidays,TRUE,2882,5.967999999999989,study,33,142.099,0,1,0.3,0.3,Inf,0,sub-003,1503,sub-003,sub-003,3,sub-03,0.3,4,0.1512,142.099
1503,11,chicken,TRUE,2867,4.695999999999998,study,36,159.675,0,1,0.3,0.3,Inf,0,sub-003,1503,sub-003,sub-003,3,sub-03,0.3,4,0.1512,159.675
1503,16,work,TRUE,1500,2.647999999999996,study,37,162.323,0,1,0.3,0.3,Inf,0,sub-003,1503,sub-003,sub-003,3,sub-03,0.3,7,0.2211,162.323
1503,1,enemy,TRUE,2340,4.463999999999999,study,43,184.13,0,1,0.3,0.3,Inf,0,sub-003,1503,sub-003,sub-003,3,sub-03,0.3,13,0.3742,184.13
1503,6,monkey,TRUE,2355,3.7520000000000095,study,44,187.882,0,1,0.3,0.3,Inf,0,sub-003,1503,sub-003,sub-003,3,sub-03,0.3,4,0.1512,187.882
1503,14,voice,TRUE,1899,3.1680000000000064,study,53,232.818,0,1,0.3,0.3,Inf,0,sub-003,1503,sub-003,sub-003,3,sub-03,0.3,9,0.2719,232.818
1503,21,color,TRUE,1580,6.711999999999989,study,57,253.738,0,1,0.3,0.3,Inf,0,sub-003,1503,sub-003,sub-003,3,sub-03,0.3,7,0.1883,253.738
1503,2,beer,TRUE,2027,3.816000000000031,study,61,265.978,0,1,0.3,0.3,Inf,0,sub-003,1503,sub-003,sub-003,3,sub-03,0.3,4,0.1512,265.978
1503,22,fruit,TRUE,1580,3.863999999999976,study,62,269.842,0,1,0.3,0.3,Inf,0,sub-003,1503,sub-003,sub-003,3,sub-03,0.3,9,0.2469,269.842
1503,20,bike,TRUE,3196,4.336000000000013,study,69,296.474,0,1,0.3,0.3,Inf,0,sub-003,1503,sub-003,sub-003,3,sub-03,0.3,4,0.1754,296.474
1503,7,jicho,FALSE,1219,7.096000000000004,study,70,303.57,5,1,0.3,0.3,Inf,0,sub-003,1503,sub-003,sub-003,3,sub-03,0.3,5,0.2008,303.57
1503,4,pants,TRUE,3746,5.2309999999999945,study,80,347.409,0,1,0.3,0.3,Inf,0,sub-003,1503,sub-003,sub-003,3,sub-03,0.3,6,0.2262,347.409
1503,15,thanks,TRUE,2716,4.0160000000000196,study,81,351.425,0,1,0.3,0.3,Inf,0,sub-003,1503,sub-003,sub-003,3,sub-03,0.3,6,0.2246,351.425
1503,8,music,TRUE,1780,3.0400000000000205,study,86,363.329,0,1,0.3,0.3,Inf,0,sub-003,1503,sub-003,sub-003,3,sub-03,0.3,4,0.1512,363.329
1503,10,cloud,TRUE,1484,2.7520000000000095,study,90,378.337,0,1,0.3,0.3,Inf,0,sub-003,1503,sub-003,sub-003,3,sub-03,0.3,13,0.3094,378.337
1504,6,monkey,TRUE,2467,4.288,study,1,4.288,0,1,0.3,0.3,Inf,0,sub-004,1504,sub-004,sub-004,4,sub-04,0.3,10,0.4223,4.288
1504,8,music,TRUE,1648,3.174999999999999,study,3,13.258,0,1,0.3,0.3,Inf,0,sub-004,1504,sub-004,sub-004,4,sub-04,0.3,7,0.2992,13.258
1504,10,cloud,TRUE,1557,3.624000000000001,study,5,19.468,0,1,0.3,0.3,Inf,0,sub-004,1504,sub-004,sub-004,4,sub-04,0.3,6,0.3473,19.468
1504,19,wheel,TRUE,1750,3.532,study,6,23,0,1,0.3,0.3,Inf,0,sub-004,1504,sub-004,sub-004,4,sub-04,0.3,16,0.4465,23
1504,13,song,TRUE,2384,10.542000000000002,study,9,39.558,0,1,0.3,0.3,Inf,0,sub-004,1504,sub-004,sub-004,4,sub-04,0.3,19,0.55,39.558
1504,24,shop,TRUE,1656,3.246000000000002,study,10,42.804,0,1,0.3,0.3,Inf,0,sub-004,1504,sub-004,sub-004,4,sub-04,0.3,15,0.4547,42.804
1504,22,fruit,TRUE,2161,3.7319999999999993,study,29,185.105,0,1,0.3,0.3,Inf,0,sub-004,1504,sub-004,sub-004,4,sub-04,0.3,6,0.373,185.105
1504,25,language,TRUE,1277,4.1440000000000055,study,30,189.249,0,1,0.3,0.3,Inf,0,sub-004,1504,sub-004,sub-004,4,sub-04,0.3,4,0.2996,189.249
1504,18,friend,TRUE,2304,5.545000000000016,study,45,285.488,0,1,0.3,0.3,Inf,0,sub-004,1504,sub-004,sub-004,4,sub-04,0.3,2,0.2504,285.488
1504,14,voice,TRUE,3820,5.9010000000000105,study,46,291.389,0,1,0.3,0.3,Inf,0,sub-004,1504,sub-004,sub-004,4,sub-04,0.3,6,0.4277,291.389
1504,15,thanks,TRUE,1651,3.447999999999979,study,79,501.45,0,1,0.3,0.3,Inf,0,sub-004,1504,sub-004,sub-004,4,sub-04,0.3,2,0.2504,501.45
1504,16,work,TRUE,1723,6.793000000000006,study,82,523.303,0,1,0.3,0.3,Inf,0,sub-004,1504,sub-004,sub-004,4,sub-04,0.3,3,0.3,523.303
1504,12,book,TRUE,943,2.437000000000012,study,93,572.827,0,1,0.3,0.3,Inf,0,sub-004,1504,sub-004,sub-004,4,sub-04,0.3,3,0.3492,572.827
1504,17,holidays,TRUE,1360,4.962999999999965,study,101,630.213,0,1,0.3,0.3,Inf,0,sub-004,1504,sub-004,sub-004,4,sub-04,0.3,2,0.3496,630.213
1504,1,enemy,TRUE,1162,3.034999999999968,study,108,666.198,0,1,0.3,0.3,Inf,0,sub-004,1504,sub-004,sub-004,4,sub-04,0.3,1,0.3,666.198
1504,7,jicho,FALSE,1944,3.6420000000000528,study,109,669.84,5,1,0.3,0.3,Inf,0,sub-004,1504,sub-004,sub-004,4,sub-04,0.3,1,0.3,669.84
1504,5,office,TRUE,1978,3.819999999999936,study,120,721.861,0,1,0.3,0.3,Inf,0,sub-004,1504,sub-004,sub-004,4,sub-04,0.3,0,0.3,721.861
1505,10,cloud,TRUE,21212,23.121,study,1,23.121,0,1,0.3,0.3,Inf,0,sub-010,1505,sub-010,sub-010,5,sub-05,0.3,3,0.2508,23.121
1505,21,color,TRUE,14366,22.857,study,3,50.125,0,1,0.3,0.3,Inf,0,sub-010,1505,sub-010,sub-010,5,sub-05,0.3,4,0.2746,50.125
1505,2,beer,TRUE,10223,12.345999999999997,study,5,65.431,0,1,0.3,0.3,Inf,0,sub-010,1505,sub-010,sub-010,5,sub-05,0.3,3,0.2008,65.431
1505,20,bike,TRUE,16665,18.48100000000001,study,6,83.912,0,1,0.3,0.3,Inf,0,sub-010,1505,sub-010,sub-010,5,sub-05,0.3,3,0.2008,83.912
1505,11,chicken,TRUE,12432,16.60000000000001,study,10,109.072,0,1,0.3,0.3,Inf,0,sub-010,1505,sub-010,sub-010,5,sub-05,0.3,3,0.2008,109.072
1505,13,song,TRUE,10225,12.717000000000011,study,13,130.889,0,1,0.3,0.3,Inf,0,sub-010,1505,sub-010,sub-010,5,sub-05,0.3,4,0.2934,130.889
1505,22,fruit,TRUE,9617,12.099999999999994,study,14,142.989,0,1,0.3,0.3,Inf,0,sub-010,1505,sub-010,sub-010,5,sub-05,0.3,4,0.2582,142.989
1505,25,language,TRUE,13043,15.752999999999986,study,19,171.861,0,1,0.3,0.3,Inf,0,sub-010,1505,sub-010,sub-010,5,sub-05,0.3,4,0.2965,171.861
1505,7,eye,TRUE,24499,25.542,study,22,203.663,0,1,0.3,0.3,Inf,0,sub-010,1505,sub-010,sub-010,5,sub-05,0.3,3,0.2883,203.663
1505,15,thanks,TRUE,12605,14.062999999999988,study,26,230.565,0,1,0.3,0.3,Inf,0,sub-010,1505,sub-010,sub-010,5,sub-05,0.3,4,0.2746,230.565
1505,24,shop,TRUE,18555,20.657999999999987,study,29,259.633,0,1,0.3,0.3,Inf,0,sub-010,1505,sub-010,sub-010,5,sub-05,0.3,2,0.2504,259.633
1505,16,work,TRUE,23075,24.399,study,33,292.782,0,1,0.3,0.3,Inf,0,sub-010,1505,sub-010,sub-010,5,sub-05,0.3,4,0.3496,292.782
1505,12,book,TRUE,27885,29.168999999999983,study,37,337.09,0,1,0.3,0.3,Inf,0,sub-010,1505,sub-010,sub-010,5,sub-05,0.3,4,0.3496,337.09
1505,8,music,TRUE,21011,22.75,study,43,381.491,0,1,0.3,0.3,Inf,0,sub-010,1505,sub-010,sub-010,5,sub-05,0.3,2,0.2504,381.491
1505,18,friend,TRUE,7095,9.003000000000043,study,44,390.494,0,1,0.3,0.3,Inf,0,sub-010,1505,sub-010,sub-010,5,sub-05,0.3,2,0.2504,390.494
1505,6,monkey,TRUE,9331,11.274999999999975,study,49,418.008,0,1,0.3,0.3,Inf,0,sub-010,1505,sub-010,sub-010,5,sub-05,0.3,2,0.2504,418.008
1505,19,wheel,TRUE,19995,21.41300000000001,study,50,439.421,0,1,0.3,0.3,Inf,0,sub-010,1505,sub-010,sub-010,5,sub-05,0.3,2,0.2527,439.421
1505,1,enemy,TRUE,13490,17.918999999999983,study,55,470.301,0,1,0.3,0.3,Inf,0,sub-010,1505,sub-010,sub-010,5,sub-05,0.3,2,0.2504,470.301
1505,23,pain,TRUE,12142,14.897999999999968,study,58,493.419,0,1,0.3,0.3,Inf,0,sub-010,1505,sub-010,sub-010,5,sub-05,0.3,2,0.2504,493.419
1505,9,police,TRUE,14918,17.345000000000027,study,63,523.373,0,1,0.3,0.3,Inf,0,sub-010,1505,sub-010,sub-010,5,sub-05,0.3,2,0.2746,523.373
1505,3,fish,TRUE,8895,13.278999999999996,study,74,576.281,0,1,0.3,0.3,Inf,0,sub-010,1505,sub-010,sub-010,5,sub-05,0.3,2,0.2504,576.281
1505,14,voice,TRUE,8421,11.62900000000002,study,75,587.91,0,1,0.3,0.3,Inf,0,sub-010,1505,sub-010,sub-010,5,sub-05,0.3,2,0.2746,587.91
1505,17,holidays,TRUE,21181,23.506999999999948,study,81,629.636,0,1,0.3,0.3,Inf,0,sub-010,1505,sub-010,sub-010,5,sub-05,0.3,2,0.3496,629.636
1505,5,office,TRUE,8040,9.743000000000052,study,84,645.399,0,1,0.3,0.3,Inf,0,sub-010,1505,sub-010,sub-010,5,sub-05,0.3,1,0.3,645.399
1505,4,pants,TRUE,12528,14.211999999999987,study,90,691.669,0,1,0.3,0.3,Inf,0,sub-010,1505,sub-010,sub-010,5,sub-05,0.3,0,0.3,691.669
1509,23,pain,TRUE,1858,3.431,study,1,3.431,0,1,0.3,0.3,Inf,0,sub-021,1509,sub-021,sub-021,6,sub-06,0.3,4,0.2473,3.431
1509,20,bike,TRUE,2558,3.896,study,3,9.943,0,1,0.3,0.3,Inf,0,sub-021,1509,sub-021,sub-021,6,sub-06,0.3,3,0.2008,9.943
1509,3,fish,TRUE,3425,4.682,study,5,17.081,0,1,0.3,0.3,Inf,0,sub-021,1509,sub-021,sub-021,6,sub-06,0.3,8,0.4277,17.081
1509,8,music,TRUE,2267,4.943999999999999,study,6,22.025,0,1,0.3,0.3,Inf,0,sub-021,1509,sub-021,sub-021,6,sub-06,0.3,4,0.2504,22.025
1509,13,song,TRUE,7551,8.729999999999997,study,9,37.443,0,1,0.3,0.3,Inf,0,sub-021,1509,sub-021,sub-021,6,sub-06,0.3,6,0.3449,37.443
1509,17,holidays,TRUE,2186,4.9040000000000035,study,10,42.347,0,1,0.3,0.3,Inf,0,sub-021,1509,sub-021,sub-021,6,sub-06,0.3,8,0.3988,42.347
1509,7,eye,TRUE,2092,3.3359999999999985,study,15,61.812,0,1,0.3,0.3,Inf,0,sub-021,1509,sub-021,sub-021,6,sub-06,0.3,6,0.3457,61.812
1509,16,work,TRUE,2708,3.8710000000000098,study,16,65.683,0,1,0.3,0.3,Inf,0,sub-021,1509,sub-021,sub-021,6,sub-06,0.3,4,0.2504,65.683
1509,14,voice,TRUE,3574,4.9210000000000065,study,21,89.304,0,1,0.3,0.3,Inf,0,sub-021,1509,sub-021,sub-021,6,sub-06,0.3,4,0.2957,89.304
1509,5,?,FALSE,60000,61.208,study,22,150.512,6,1,0.3,0.3,Inf,0,sub-021,1509,sub-021,sub-021,6,sub-06,0.3,3,0.2375,150.512
1509,25,lugha,FALSE,1394,6.536999999999978,study,38,282.123,5,1,0.3,0.3,Inf,0,sub-021,1509,sub-021,sub-021,6,sub-06,0.3,2,0.2504,282.123
1509,1,enemy,TRUE,1117,22.365999999999985,study,39,304.489,0,1,0.3,0.3,Inf,0,sub-021,1509,sub-021,sub-021,6,sub-06,0.3,2,0.2504,304.489
1509,4,pants,TRUE,5452,7.146999999999991,study,42,316.978,0,1,0.3,0.3,Inf,0,sub-021,1509,sub-021,sub-021,6,sub-06,0.3,4,0.2996,316.978
1509,9,askari,FALSE,1829,3.623999999999967,study,43,320.602,6,1,0.3,0.3,Inf,0,sub-021,1509,sub-021,sub-021,6,sub-06,0.3,5,0.3234,320.602
1509,19,wheel,TRUE,2971,4.2239999999999895,study,51,354.741,0,1,0.3,0.3,Inf,0,sub-021,1509,sub-021,sub-021,6,sub-06,0.3,6,0.3488,354.741
1509,12,book,TRUE,4960,6.23599999999999,study,52,360.977,0,1,0.3,0.3,Inf,0,sub-021,1509,sub-021,sub-021,6,sub-06,0.3,6,0.434,360.977
1509,21,color,TRUE,2107,3.879999999999995,study,62,401.839,0,1,0.3,0.3,Inf,0,sub-021,1509,sub-021,sub-021,6,sub-06,0.3,6,0.4309,401.839
1509,10,cloud,TRUE,4260,5.456000000000017,study,63,407.295,0,1,0.3,0.3,Inf,0,sub-021,1509,sub-021,sub-021,6,sub-06,0.3,2,0.2504,407.295
1509,22,fruit,TRUE,1928,4.1440000000000055,study,91,612.41,0,1,0.3,0.3,Inf,0,sub-021,1509,sub-021,sub-021,6,sub-06,0.3,2,0.3371,612.41
1509,18,friend,TRUE,1656,3.3600000000000136,study,92,615.77,0,1,0.3,0.3,Inf,0,sub-021,1509,sub-021,sub-021,6,sub-06,0.3,2,0.2504,615.77
1509,15,thanks,TRUE,2291,3.960000000000037,study,97,636.989,0,1,0.3,0.3,Inf,0,sub-021,1509,sub-021,sub-021,6,sub-06,0.3,2,0.2504,636.989
1509,2,beer,TRUE,2549,7.375999999999976,study,98,644.365,0,1,0.3,0.3,Inf,0,sub-021,1509,sub-021,sub-021,6,sub-06,0.3,2,0.2504,644.365
1512,17,holidays,TRUE,1913,3.257,study,1,3.257,0,1,0.3,0.3,Inf,0,sub-024,1512,sub-024,sub-024,7,sub-07,0.3,7,0.318,3.257
1512,4,pants,TRUE,980,2.2440000000000007,study,3,9.525,0,1,0.3,0.3,Inf,0,sub-024,1512,sub-024,sub-024,7,sub-07,0.3,9,0.3805,9.525
1512,3,fish,TRUE,1123,2.4559999999999995,study,5,14.016,0,1,0.3,0.3,Inf,0,sub-024,1512,sub-024,sub-024,7,sub-07,0.3,6,0.352,14.016
1512,16,wor,FALSE,1033,3.479000000000001,study,6,17.495,1,1,0.3,0.3,Inf,0,sub-024,1512,sub-024,sub-024,7,sub-07,0.3,4,0.2965,17.495
1512,9,police,TRUE,1182,2.7250000000000014,study,9,36.049,0,1,0.3,0.3,Inf,0,sub-024,1512,sub-024,sub-024,7,sub-07,0.3,9,0.375,36.049
1512,12,book,TRUE,1135,2.439,study,10,38.488,0,1,0.3,0.3,Inf,0,sub-024,1512,sub-024,sub-024,7,sub-07,0.3,8,0.3809,38.488
1512,15,thanks,TRUE,1323,6.152999999999999,study,15,64.422,0,1,0.3,0.3,Inf,0,sub-024,1512,sub-024,sub-024,7,sub-07,0.3,7,0.3633,64.422
1512,5,office,TRUE,1602,2.975999999999999,study,16,67.398,0,1,0.3,0.3,Inf,0,sub-024,1512,sub-024,sub-024,7,sub-07,0.3,5,0.3273,67.398
1512,11,chicken,TRUE,1223,2.625,study,30,149.472,0,1,0.3,0.3,Inf,0,sub-024,1512,sub-024,sub-024,7,sub-07,0.3,3,0.25,149.472
1512,6,monkey,TRUE,16989,19.947000000000003,study,31,169.419,0,1,0.3,0.3,Inf,0,sub-024,1512,sub-024,sub-024,7,sub-07,0.3,3,0.3,169.419
1512,21,color,TRUE,1093,2.7660000000000196,study,48,260.298,0,1,0.3,0.3,Inf,0,sub-024,1512,sub-024,sub-024,7,sub-07,0.3,8,0.3777,260.298
1512,8,music,TRUE,1254,3.11099999999999,study,49,263.409,0,1,0.3,0.3,Inf,0,sub-024,1512,sub-024,sub-024,7,sub-07,0.3,5,0.3492,263.409
1512,20,bike,TRUE,1229,3.2229999999999563,study,56,295.484,0,1,0.3,0.3,Inf,0,sub-024,1512,sub-024,sub-024,7,sub-07,0.3,4,0.3246,295.484
1512,13,wimbo,FALSE,1292,2.6960000000000264,study,57,298.18,6,1,0.3,0.3,Inf,0,sub-024,1512,sub-024,sub-024,7,sub-07,0.3,2,0.2504,298.18
1512,23,pain,TRUE,1129,2.241999999999962,study,64,334.837,0,1,0.3,0.3,Inf,0,sub-024,1512,sub-024,sub-024,7,sub-07,0.3,3,0.3,334.837
1512,18,friend,TRUE,1360,2.7800000000000296,study,65,337.617,0,1,0.3,0.3,Inf,0,sub-024,1512,sub-024,sub-024,7,sub-07,0.3,2,0.2504,337.617
1512,1,enemy,TRUE,1041,2.8170000000000073,study,84,418.988,0,1,0.3,0.3,Inf,0,sub-024,1512,sub-024,sub-024,7,sub-07,0.3,9,0.5133,418.988
1512,10,cloud,TRUE,1532,4.256000000000029,study,85,423.244,0,1,0.3,0.3,Inf,0,sub-024,1512,sub-024,sub-024,7,sub-07,0.3,5,0.3492,423.244
1512,14,voice,TRUE,1453,6.0849999999999795,study,89,441.534,0,1,0.3,0.3,Inf,0,sub-024,1512,sub-024,sub-024,7,sub-07,0.3,8,0.5043,441.534
1512,24,shop,TRUE,1414,6.7379999999999995,study,102,501.419,0,1,0.3,0.3,Inf,0,sub-024,1512,sub-024,sub-024,7,sub-07,0.3,4,0.3887,501.419
1512,25,language,TRUE,1160,2.8290000000000077,study,103,504.248,0,1,0.3,0.3,Inf,0,sub-024,1512,sub-024,sub-024,7,sub-07,0.3,2,0.2504,504.248
1512,19,wheel,TRUE,1157,3.1310000000000855,study,124,620.051,0,1,0.3,0.3,Inf,0,sub-024,1512,sub-024,sub-024,7,sub-07,0.3,2,0.3496,620.051
1512,22,fruit,TRUE,974,2.7340000000000373,study,131,644.802,0,1,0.3,0.3,Inf,0,sub-024,1512,sub-024,sub-024,7,sub-07,0.3,2,0.3496,644.802
1512,7,eye,TRUE,1150,2.40300000000002,study,132,647.205,0,1,0.3,0.3,Inf,0,sub-024,1512,sub-024,sub-024,7,sub-07,0.3,2,0.3496,647.205
1512,2,beer,TRUE,1020,2.59699999999998,study,135,654.487,0,1,0.3,0.3,Inf,0,sub-024,1512,sub-024,sub-024,7,sub-07,0.3,1,0.3,654.487
1517,15,thanks,TRUE,5226,6.66,study,1,6.66,0,1,0.3,0.3,Inf,0,sub-034,1517,sub-034,sub-034,8,sub-08,0.3,10,0.4402,6.66
1517,16,work,TRUE,1557,4.013999999999999,study,3,13.59,0,1,0.3,0.3,Inf,0,sub-034,1517,sub-034,sub-034,8,sub-08,0.3,15,0.5352,13.59
1517,19,wheel,TRUE,1449,4.4239999999999995,study,5,20.518,0,1,0.3,0.3,Inf,0,sub-034,1517,sub-034,sub-034,8,sub-08,0.3,16,0.6184,20.518
1517,6,monkey,TRUE,2107,4.120000000000001,study,6,24.638,0,1,0.3,0.3,Inf,0,sub-034,1517,sub-034,sub-034,8,sub-08,0.3,10,0.4793,24.638
1517,1,enemy,TRUE,1806,4.156000000000002,study,9,34.7,0,1,0.3,0.3,Inf,0,sub-034,1517,sub-034,sub-034,8,sub-08,0.3,7,0.4016,34.7
1517,22,fruit,TRUE,1428,5.214999999999996,study,10,39.915,0,1,0.3,0.3,Inf,0,sub-034,1517,sub-034,sub-034,8,sub-08,0.3,9,0.4578,39.915
1517,12,book,TRUE,1211,3.1300000000000026,study,13,47.887,0,1,0.3,0.3,Inf,0,sub-034,1517,sub-034,sub-034,8,sub-08,0.3,13,0.5047,47.887
1517,10,cloud,TRUE,2018,4.097000000000001,study,14,51.984,0,1,0.3,0.3,Inf,0,sub-034,1517,sub-034,sub-034,8,sub-08,0.3,4,0.2504,51.984
1517,21,color,TRUE,2797,4.658999999999992,study,60,470.43,0,1,0.3,0.3,Inf,0,sub-034,1517,sub-034,sub-034,8,sub-08,0.3,2,0.2504,470.43
1517,25,language,TRUE,2618,7.222999999999956,study,95,718.024,0,1,0.3,0.3,Inf,0,sub-034,1517,sub-034,sub-034,8,sub-08,0.3,0,0.3,718.024
1518,16,work,TRUE,4514,5.841,study,1,5.841,0,1,0.3,0.3,Inf,0,sub-035,1518,sub-035,sub-035,9,sub-09,0.3,4,0.2504,5.841
1518,19,wheel,TRUE,15135,21.906,study,3,30.916,0,1,0.3,0.3,Inf,0,sub-035,1518,sub-035,sub-035,9,sub-09,0.3,5,0.3266,30.916
1518,22,fruit,TRUE,3879,6.303000000000004,study,5,40.023,0,1,0.3,0.3,Inf,0,sub-035,1518,sub-035,sub-035,9,sub-09,0.3,3,0.2688,40.023
1518,7,eye,TRUE,4631,23.671,study,6,63.694,0,1,0.3,0.3,Inf,0,sub-035,1518,sub-035,sub-035,9,sub-09,0.3,3,0.2008,63.694
1518,10,cloud,TRUE,2077,4.265000000000001,study,10,78.483,0,1,0.3,0.3,Inf,0,sub-035,1518,sub-035,sub-035,9,sub-09,0.3,4,0.2512,78.483
1518,1,enemy,TRUE,4480,6.958999999999989,study,11,85.442,0,1,0.3,0.3,Inf,0,sub-035,1518,sub-035,sub-035,9,sub-09,0.3,4,0.2504,85.442
1518,12,book,TRUE,8208,12.305999999999996,study,15,108.219,0,1,0.3,0.3,Inf,0,sub-035,1518,sub-035,sub-035,9,sub-09,0.3,3,0.2508,108.219
1518,13,song,TRUE,1857,11.262,study,16,119.481,0,1,0.3,0.3,Inf,0,sub-035,1518,sub-035,sub-035,9,sub-09,0.3,3,0.2008,119.481
1518,11,chicken,TRUE,4879,7.331999999999994,study,21,139.313,0,1,0.3,0.3,Inf,0,sub-035,1518,sub-035,sub-035,9,sub-09,0.3,3,0.275,139.313
1518,23,pain,TRUE,5137,9.037999999999982,study,25,162.807,0,1,0.3,0.3,Inf,0,sub-035,1518,sub-035,sub-035,9,sub-09,0.3,3,0.2008,162.807
1518,21,color,TRUE,1569,11.172000000000024,study,26,173.979,0,1,0.3,0.3,Inf,0,sub-035,1518,sub-035,sub-035,9,sub-09,0.3,6,0.3613,173.979
1518,18,friend,TRUE,2188,8.240000000000009,study,33,216.648,0,1,0.3,0.3,Inf,0,sub-035,1518,sub-035,sub-035,9,sub-09,0.3,4,0.3246,216.648
1518,15,thanks,TRUE,2213,17.27199999999999,study,34,233.92,0,1,0.3,0.3,Inf,0,sub-035,1518,sub-035,sub-035,9,sub-09,0.3,3,0.3,233.92
1518,4,pants,TRUE,3799,15.635999999999967,study,39,264.936,0,1,0.3,0.3,Inf,0,sub-035,1518,sub-035,sub-035,9,sub-09,0.3,3,0.2008,264.936
1518,6,monkey,TRUE,2229,4.456000000000017,study,40,269.392,0,1,0.3,0.3,Inf,0,sub-035,1518,sub-035,sub-035,9,sub-09,0.3,3,0.2008,269.392
1518,24,shop,TRUE,1448,5.035000000000025,study,43,280.862,0,1,0.3,0.3,Inf,0,sub-035,1518,sub-035,sub-035,9,sub-09,0.3,4,0.2551,280.862
1518,14,voice,TRUE,2297,5.209000000000003,study,44,286.071,0,1,0.3,0.3,Inf,0,sub-035,1518,sub-035,sub-035,9,sub-09,0.3,8,0.4496,286.071
1518,20,bike,TRUE,2426,5.867999999999995,study,50,309.602,0,1,0.3,0.3,Inf,0,sub-035,1518,sub-035,sub-035,9,sub-09,0.3,2,0.2504,309.602
1518,8,music,TRUE,1297,7.675000000000011,study,51,317.277,0,1,0.3,0.3,Inf,0,sub-035,1518,sub-035,sub-035,9,sub-09,0.3,2,0.2504,317.277
1518,17,holidays,TRUE,5085,7.334000000000003,study,57,339.306,0,1,0.3,0.3,Inf,0,sub-035,1518,sub-035,sub-035,9,sub-09,0.3,2,0.2504,339.306
1518,5,office,TRUE,2484,16.690999999999974,study,72,484.746,0,1,0.3,0.3,Inf,0,sub-035,1518,sub-035,sub-035,9,sub-09,0.3,2,0.2559,484.746
1518,3,fish,TRUE,4143,21.99599999999998,study,85,585.687,0,1,0.3,0.3,Inf,0,sub-035,1518,sub-035,sub-035,9,sub-09,0.3,2,0.2504,585.687
1518,25,language,TRUE,3624,8.850999999999999,study,97,695.436,0,1,0.3,0.3,Inf,0,sub-035,1518,sub-035,sub-035,9,sub-09,0.3,1,0.3,695.436
1518,2,beer,TRUE,1323,4.402000000000044,study,101,709.672,0,1,0.3,0.3,Inf,0,sub-035,1518,sub-035,sub-035,9,sub-09,0.3,1,0.3,709.672
1518,9,police,TRUE,1426,7.456000000000017,study,102,717.128,0,1,0.3,0.3,Inf,0,sub-035,1518,sub-035,sub-035,9,sub-09,0.3,1,0.3,717.128
1521,3,fish,TRUE,6526,7.032,study,1,7.032,0,1,0.3,0.3,Inf,0,sub-046,1521,sub-046,sub-046,10,sub-10,0.3,7,0.3688,7.032
1521,13,song,TRUE,2619,4.603,study,3,14.18,0,1,0.3,0.3,Inf,0,sub-046,1521,sub-046,sub-046,10,sub-10,0.3,7,0.3492,14.18
1521,6,monkey,TRUE,4177,7.050000000000001,study,5,23.207,0,1,0.3,0.3,Inf,0,sub-046,1521,sub-046,sub-046,10,sub-10,0.3,6,0.2996,23.207
1521,8,music,TRUE,2325,5.216999999999999,study,6,28.424,0,1,0.3,0.3,Inf,0,sub-046,1521,sub-046,sub-046,10,sub-10,0.3,11,0.4719,28.424
1521,19,wheel,TRUE,1252,3.554000000000002,study,9,40.2,0,1,0.3,0.3,Inf,0,sub-046,1521,sub-046,sub-046,10,sub-10,0.3,4,0.209,40.2
1521,23,pain,TRUE,1815,3.488999999999997,study,10,43.689,0,1,0.3,0.3,Inf,0,sub-046,1521,sub-046,sub-046,10,sub-10,0.3,4,0.2504,43.689
1521,17,holidays,TRUE,1056,3.5,study,13,52.338,0,1,0.3,0.3,Inf,0,sub-046,1521,sub-046,sub-046,10,sub-10,0.3,3,0.2008,52.338
1521,12,book,TRUE,2645,4.573,study,14,56.911,0,1,0.3,0.3,Inf,0,sub-046,1521,sub-046,sub-046,10,sub-10,0.3,4,0.2996,56.911
1521,1,enemy,TRUE,1265,3.756,study,23,104.742,0,1,0.3,0.3,Inf,0,sub-046,1521,sub-046,sub-046,10,sub-10,0.3,3,0.2008,104.742
1521,18,friend,TRUE,1448,3.688999999999993,study,32,153.476,0,1,0.3,0.3,Inf,0,sub-046,1521,sub-046,sub-046,10,sub-10,0.3,4,0.2504,153.476
1521,14,voice,TRUE,1405,3.2749999999999773,study,35,161.426,0,1,0.3,0.3,Inf,0,sub-046,1521,sub-046,sub-046,10,sub-10,0.3,16,0.6496,161.426
1521,22,fruit,TRUE,985,2.622000000000014,study,36,164.048,0,1,0.3,0.3,Inf,0,sub-046,1521,sub-046,sub-046,10,sub-10,0.3,3,0.2008,164.048
1521,2,beer,TRUE,1012,2.8540000000000134,study,40,182.757,0,1,0.3,0.3,Inf,0,sub-046,1521,sub-046,sub-046,10,sub-10,0.3,3,0.2008,182.757
1521,24,shop,TRUE,1188,2.955999999999989,study,41,185.713,0,1,0.3,0.3,Inf,0,sub-046,1521,sub-046,sub-046,10,sub-10,0.3,4,0.2504,185.713
1521,25,language,TRUE,1202,2.984999999999985,study,44,193.225,0,1,0.3,0.3,Inf,0,sub-046,1521,sub-046,sub-046,10,sub-10,0.3,3,0.2008,193.225
1521,16,work,TRUE,995,2.3460000000000036,study,51,231.275,0,1,0.3,0.3,Inf,0,sub-046,1521,sub-046,sub-046,10,sub-10,0.3,4,0.2996,231.275
1521,7,eye,TRUE,1044,6.051000000000045,study,58,278.66,0,1,0.3,0.3,Inf,0,sub-046,1521,sub-046,sub-046,10,sub-10,0.3,3,0.2063,278.66
1521,21,color,TRUE,1052,2.950999999999965,study,59,281.611,0,1,0.3,0.3,Inf,0,sub-046,1521,sub-046,sub-046,10,sub-10,0.3,3,0.2008,281.611
1521,15,thanks,TRUE,1178,2.490000000000009,study,66,314.802,0,1,0.3,0.3,Inf,0,sub-046,1521,sub-046,sub-046,10,sub-10,0.3,4,0.2996,314.802
1521,10,cloud,TRUE,1234,2.573999999999955,study,67,317.376,0,1,0.3,0.3,Inf,0,sub-046,1521,sub-046,sub-046,10,sub-10,0.3,6,0.4074,317.376
1521,11,chicken,TRUE,1114,2.8870000000000005,study,72,337.259,0,1,0.3,0.3,Inf,0,sub-046,1521,sub-046,sub-046,10,sub-10,0.3,4,0.2996,337.259
1521,9,police,TRUE,2352,4.300000000000011,study,73,341.559,0,1,0.3,0.3,Inf,0,sub-046,1521,sub-046,sub-046,10,sub-10,0.3,5,0.2992,341.559
1521,5,office,TRUE,836,2.030999999999949,study,126,674.794,0,1,0.3,0.3,Inf,0,sub-046,1521,sub-046,sub-046,10,sub-10,0.3,2,0.3496,674.794
1521,20,bike,TRUE,1008,2.22300000000007,study,127,677.017,0,1,0.3,0.3,Inf,0,sub-046,1521,sub-046,sub-046,10,sub-10,0.3,2,0.2504,677.017
1521,4,pants,TRUE,906,2.062999999999988,study,133,696.14,0,1,0.3,0.3,Inf,0,sub-046,1521,sub-046,sub-046,10,sub-10,0.3,1,0.3,696.14
1529,5,office,TRUE,1720,3.051,study,1,3.051,0,1,0.3,0.3,Inf,0,sub-061,1529,sub-061,sub-061,11,sub-11,0.3,6,0.2504,3.051
1529,25,language,TRUE,2313,6.357000000000001,study,3,11.976,0,1,0.3,0.3,Inf,0,sub-061,1529,sub-061,sub-061,11,sub-11,0.3,4,0.1512,11.976
1529,23,pain,TRUE,2532,4.064,study,5,19.553,0,1,0.3,0.3,Inf,0,sub-061,1529,sub-061,sub-061,11,sub-11,0.3,3,0.2008,19.553
1529,12,book,TRUE,2202,3.887000000000001,study,6,23.44,0,1,0.3,0.3,Inf,0,sub-061,1529,sub-061,sub-061,11,sub-11,0.3,13,0.3984,23.44
1529,20,bike,TRUE,1465,3.951999999999998,study,9,34.802,0,1,0.3,0.3,Inf,0,sub-061,1529,sub-061,sub-061,11,sub-11,0.3,4,0.1754,34.802
1529,3,fish,TRUE,1514,3.408999999999999,study,10,38.211,0,1,0.3,0.3,Inf,0,sub-061,1529,sub-061,sub-061,11,sub-11,0.3,3,0.2008,38.211
1529,18,friend,TRUE,54,8.380000000000003,study,14,59.767,0,1,0.3,0.3,Inf,0,sub-061,1529,sub-061,sub-061,11,sub-11,0.3,4,0.1973,59.767
1529,2,beer,TRUE,1209,2.9580000000000126,study,17,68.671,0,1,0.3,0.3,Inf,0,sub-061,1529,sub-061,sub-061,11,sub-11,0.3,3,0.2008,68.671
1529,6,monkey,TRUE,1792,4.977999999999994,study,18,73.649,0,1,0.3,0.3,Inf,0,sub-061,1529,sub-061,sub-061,11,sub-11,0.3,3,0.2008,73.649
1529,17,holidays,TRUE,1815,4.432000000000002,study,26,100.361,0,1,0.3,0.3,Inf,0,sub-061,1529,sub-061,sub-061,11,sub-11,0.3,7,0.275,100.361
1529,9,police,TRUE,848,5.778999999999996,study,27,106.14,0,1,0.3,0.3,Inf,0,sub-061,1529,sub-061,sub-061,11,sub-11,0.3,13,0.3969,106.14
1529,21,color,TRUE,1075,2.896000000000015,study,34,141.852,0,1,0.3,0.3,Inf,0,sub-061,1529,sub-061,sub-061,11,sub-11,0.3,13,0.482,141.852
1529,19,wheel,TRUE,1117,6.486999999999995,study,35,148.339,0,1,0.3,0.3,Inf,0,sub-061,1529,sub-061,sub-061,11,sub-11,0.3,6,0.3223,148.339
1529,11,chicken,TRUE,1663,8.375,study,41,193.077,0,1,0.3,0.3,Inf,0,sub-061,1529,sub-061,sub-061,11,sub-11,0.3,3,0.2008,193.077
1529,22,fruit,TRUE,1326,5.022999999999996,study,42,198.1,0,1,0.3,0.3,Inf,0,sub-061,1529,sub-061,sub-061,11,sub-11,0.3,7,0.3492,198.1
1529,1,enemy,TRUE,1618,4.275000000000006,study,50,237.528,0,1,0.3,0.3,Inf,0,sub-061,1529,sub-061,sub-061,11,sub-11,0.3,8,0.3465,237.528
1529,7,eye,TRUE,2033,5.185000000000002,study,51,242.713,0,1,0.3,0.3,Inf,0,sub-061,1529,sub-061,sub-061,11,sub-11,0.3,3,0.2008,242.713
1529,10,cloud,TRUE,1257,3.640000000000043,study,59,284.266,0,1,0.3,0.3,Inf,0,sub-061,1529,sub-061,sub-061,11,sub-11,0.3,3,0.2063,284.266
1529,16,work,TRUE,1406,2.8729999999999905,study,60,287.139,0,1,0.3,0.3,Inf,0,sub-061,1529,sub-061,sub-061,11,sub-11,0.3,8,0.3441,287.139
1529,24,shop,TRUE,1648,3.2830000000000155,study,68,315.975,0,1,0.3,0.3,Inf,0,sub-061,1529,sub-061,sub-061,11,sub-11,0.3,6,0.3551,315.975
1529,15,thanks,TRUE,1392,5.34699999999998,study,69,321.322,0,1,0.3,0.3,Inf,0,sub-061,1529,sub-061,sub-061,11,sub-11,0.3,3,0.2008,321.322
1529,4,pants,TRUE,1188,3.1539999999999964,study,100,480.087,0,1,0.3,0.3,Inf,0,sub-061,1529,sub-061,sub-061,11,sub-11,0.3,3,0.2008,480.087
1529,14,voice,TRUE,1328,3.3110000000000355,study,106,503.187,0,1,0.3,0.3,Inf,0,sub-061,1529,sub-061,sub-061,11,sub-11,0.3,4,0.2996,503.187
1529,13,song,TRUE,1240,3.716000000000008,study,107,506.903,0,1,0.3,0.3,Inf,0,sub-061,1529,sub-061,sub-061,11,sub-11,0.3,3,0.2133,506.903
1529,8,music,TRUE,1677,3.9120000000000346,study,110,518.985,0,1,0.3,0.3,Inf,0,sub-061,1529,sub-061,sub-061,11,sub-11,0.3,3,0.2008,518.985
1530,6,monkey,TRUE,2213,3.745,study,1,3.745,0,1,0.3,0.3,Inf,0,sub-062,1530,sub-062,sub-062,12,sub-12,0.3,9,0.268,3.745
1530,18,friend,TRUE,1271,3.5920000000000005,study,3,12.042,0,1,0.3,0.3,Inf,0,sub-062,1530,sub-062,sub-062,12,sub-12,0.3,4,0.1566,12.042
1530,12,book,TRUE,2146,3.266,study,5,17.988,0,1,0.3,0.3,Inf,0,sub-062,1530,sub-062,sub-062,12,sub-12,0.3,13,0.3266,17.988
1530,21,color,TRUE,1291,2.5279999999999987,study,6,20.516,0,1,0.3,0.3,Inf,0,sub-062,1530,sub-062,sub-062,12,sub-12,0.3,10,0.2293,20.516
1530,3,fish,TRUE,1164,2.3759999999999977,study,9,27.705,0,1,0.3,0.3,Inf,0,sub-062,1530,sub-062,sub-062,12,sub-12,0.3,6,0.2262,27.705
1530,20,bike,TRUE,1459,3.084000000000003,study,10,30.789,0,1,0.3,0.3,Inf,0,sub-062,1530,sub-062,sub-062,12,sub-12,0.3,4,0.1512,30.789
1530,13,song,TRUE,1025,2.2490000000000023,study,13,36.941,0,1,0.3,0.3,Inf,0,sub-062,1530,sub-062,sub-062,12,sub-12,0.3,9,0.2531,36.941
1530,22,fruit,TRUE,1462,2.674999999999997,study,14,39.616,0,1,0.3,0.3,Inf,0,sub-062,1530,sub-062,sub-062,12,sub-12,0.3,6,0.2012,39.616
1530,2,beer,TRUE,1088,2.334000000000003,study,19,56.752,0,1,0.3,0.3,Inf,0,sub-062,1530,sub-062,sub-062,12,sub-12,0.3,4,0.1629,56.752
1530,17,holidays,TRUE,2599,4.658999999999999,study,20,61.411,0,1,0.3,0.3,Inf,0,sub-062,1530,sub-062,sub-062,12,sub-12,0.3,10,0.284,61.411
1530,25,language,TRUE,1709,6.778000000000006,study,30,106.554,0,1,0.3,0.3,Inf,0,sub-062,1530,sub-062,sub-062,12,sub-12,0.3,9,0.2352,106.554
1530,10,clud,FALSE,1594,4.799999999999983,study,37,151.826,1,1,0.3,0.3,Inf,0,sub-062,1530,sub-062,sub-062,12,sub-12,0.3,13,0.375,151.826
1530,4,pants,TRUE,1145,3.7460000000000098,study,42,170.912,0,1,0.3,0.3,Inf,0,sub-062,1530,sub-062,sub-062,12,sub-12,0.3,4,0.1512,170.912
1530,24,shop,TRUE,1177,2.502999999999986,study,45,185.392,0,1,0.3,0.3,Inf,0,sub-062,1530,sub-062,sub-062,12,sub-12,0.3,10,0.2848,185.392
1530,5,office,TRUE,1519,3.1469999999999914,study,46,188.539,0,1,0.3,0.3,Inf,0,sub-062,1530,sub-062,sub-062,12,sub-12,0.3,5,0.2133,188.539
1530,15,thanks,TRUE,1075,3.0190000000000055,study,49,201.497,0,1,0.3,0.3,Inf,0,sub-062,1530,sub-062,sub-062,12,sub-12,0.3,4,0.1512,201.497
1530,1,enemy,TRUE,1943,3.629999999999995,study,50,205.127,0,1,0.3,0.3,Inf,0,sub-062,1530,sub-062,sub-062,12,sub-12,0.3,4,0.1879,205.127
1530,7,eye,TRUE,1307,2.5600000000000023,study,60,262.571,0,1,0.3,0.3,Inf,0,sub-062,1530,sub-062,sub-062,12,sub-12,0.3,4,0.1512,262.571
1530,11,chicken,TRUE,1433,3.3209999999999695,study,61,265.892,0,1,0.3,0.3,Inf,0,sub-062,1530,sub-062,sub-062,12,sub-12,0.3,6,0.2012,265.892
1530,8,music,TRUE,1791,3.0469999999999686,study,64,273.316,0,1,0.3,0.3,Inf,0,sub-062,1530,sub-062,sub-062,12,sub-12,0.3,5,0.2016,273.316
1530,9,police,TRUE,1717,3.148000000000025,study,65,276.464,0,1,0.3,0.3,Inf,0,sub-062,1530,sub-062,sub-062,12,sub-12,0.3,4,0.1512,276.464
1530,16,work,TRUE,1268,2.3500000000000227,study,69,286.213,0,1,0.3,0.3,Inf,0,sub-062,1530,sub-062,sub-062,12,sub-12,0.3,5,0.2008,286.213
1530,19,wheel,TRUE,1328,2.576000000000022,study,72,293.531,0,1,0.3,0.3,Inf,0,sub-062,1530,sub-062,sub-062,12,sub-12,0.3,5,0.2016,293.531
1530,14,voice,TRUE,1735,3.0670000000000073,study,73,296.598,0,1,0.3,0.3,Inf,0,sub-062,1530,sub-062,sub-062,12,sub-12,0.3,9,0.2391,296.598
1530,23,pain,TRUE,1583,2.815999999999974,study,76,303.474,0,1,0.3,0.3,Inf,0,sub-062,1530,sub-062,sub-062,12,sub-12,0.3,4,0.1512,303.474
1532,3,fish,TRUE,5965,6.719,study,1,6.719,0,1,0.3,0.3,Inf,0,sub-005,1532,sub-005,sub-005,13,sub-13,0.3,18,0.5621,6.719
1532,14,voice,TRUE,2012,4.215,study,3,14.475,0,1,0.3,0.3,Inf,0,sub-005,1532,sub-005,sub-005,13,sub-13,0.3,25,0.5867,14.475
1532,6,monkey,TRUE,3041,4.699999999999999,study,5,21.429,0,1,0.3,0.3,Inf,0,sub-005,1532,sub-005,sub-005,13,sub-13,0.3,7,0.3492,21.429
1532,9,police,TRUE,5331,7.7890000000000015,study,6,29.218,0,1,0.3,0.3,Inf,0,sub-005,1532,sub-005,sub-005,13,sub-13,0.3,13,0.4648,29.218
1532,2,beer,TRUE,1576,3.647999999999996,study,9,41.907,0,1,0.3,0.3,Inf,0,sub-005,1532,sub-005,sub-005,13,sub-13,0.3,3,0.2008,41.907
1532,19,wheel,TRUE,2024,3.345000000000006,study,10,45.252,0,1,0.3,0.3,Inf,0,sub-005,1532,sub-005,sub-005,13,sub-13,0.3,8,0.3324,45.252
1532,18,friend,TRUE,2608,5.088999999999999,study,13,55.89,0,1,0.3,0.3,Inf,0,sub-005,1532,sub-005,sub-005,13,sub-13,0.3,3,0.2008,55.89
1532,8,music,TRUE,4199,8.969999999999999,study,17,79.731,0,1,0.3,0.3,Inf,0,sub-005,1532,sub-005,sub-005,13,sub-13,0.3,3,0.2008,79.731
1532,20,bike,TRUE,2748,3.944999999999993,study,27,129.707,0,1,0.3,0.3,Inf,0,sub-005,1532,sub-005,sub-005,13,sub-13,0.3,4,0.2996,129.707
1532,15,thanks,TRUE,2245,3.713999999999998,study,28,133.421,0,1,0.3,0.3,Inf,0,sub-005,1532,sub-005,sub-005,13,sub-13,0.3,4,0.2504,133.421
1532,23,pain,TRUE,1914,5.543000000000006,study,46,250.07,0,1,0.3,0.3,Inf,0,sub-005,1532,sub-005,sub-005,13,sub-13,0.3,3,0.2008,250.07
1532,12,book,TRUE,1259,4.584000000000003,study,55,299.083,0,1,0.3,0.3,Inf,0,sub-005,1532,sub-005,sub-005,13,sub-13,0.3,11,0.4984,299.083
1532,22,fruit,TRUE,1344,4.9979999999999905,study,63,337.178,0,1,0.3,0.3,Inf,0,sub-005,1532,sub-005,sub-005,13,sub-13,0.3,3,0.2008,337.178
1532,16,work,TRUE,1876,3.1420000000000528,study,103,607.269,0,1,0.3,0.3,Inf,0,sub-005,1532,sub-005,sub-005,13,sub-13,0.3,2,0.2504,607.269
1532,11,chicken,TRUE,2336,4.032000000000039,study,108,624.192,0,1,0.3,0.3,Inf,0,sub-005,1532,sub-005,sub-005,13,sub-13,0.3,2,0.2504,624.192
1532,24,shop,TRUE,1246,2.948999999999955,study,109,627.141,0,1,0.3,0.3,Inf,0,sub-005,1532,sub-005,sub-005,13,sub-13,0.3,2,0.2941,627.141
1532,5,office,TRUE,2896,4.336000000000013,study,119,669.641,0,1,0.3,0.3,Inf,0,sub-005,1532,sub-005,sub-005,13,sub-13,0.3,1,0.3,669.641
1532,13,song,TRUE,1593,3.2970000000000255,study,130,712.937,0,1,0.3,0.3,Inf,0,sub-005,1532,sub-005,sub-005,13,sub-13,0.3,1,0.3,712.937
1532,7,eye,TRUE,1059,2.6920000000000073,study,131,715.629,0,1,0.3,0.3,Inf,0,sub-005,1532,sub-005,sub-005,13,sub-13,0.3,1,0.3,715.629
1532,21,color,TRUE,1876,6.538999999999987,study,134,726.388,0,1,0.3,0.3,Inf,0,sub-005,1532,sub-005,sub-005,13,sub-13,0.3,0,0.3,726.388
1535,11,kuku,FALSE,5839,11.331,study,1,11.331,6,1,0.3,0.3,Inf,0,sub-047,1535,sub-047,sub-047,14,sub-14,0.3,6,0.1512,11.331
1535,7,eye,TRUE,3561,10.746,study,3,28.226,0,1,0.3,0.3,Inf,0,sub-047,1535,sub-047,sub-047,14,sub-14,0.3,5,0.1016,28.226
1535,16,work,TRUE,4207,5.766000000000002,study,5,36.253,0,1,0.3,0.3,Inf,0,sub-047,1535,sub-047,sub-047,14,sub-14,0.3,5,0.1016,36.253
1535,24,shop,TRUE,2217,5.189999999999998,study,6,41.443,0,1,0.3,0.3,Inf,0,sub-047,1535,sub-047,sub-047,14,sub-14,0.3,7,0.1836,41.443
1535,6,monkey,TRUE,3308,7.2719999999999985,study,9,54.793,0,1,0.3,0.3,Inf,0,sub-047,1535,sub-047,sub-047,14,sub-14,0.3,5,0.1523,54.793
1535,3,fish,TRUE,2914,5.829000000000001,study,10,60.622,0,1,0.3,0.3,Inf,0,sub-047,1535,sub-047,sub-047,14,sub-14,0.3,5,0.1016,60.622
1535,8,music,TRUE,1866,3.4209999999999923,study,17,103.163,0,1,0.3,0.3,Inf,0,sub-047,1535,sub-047,sub-047,14,sub-14,0.3,5,0.1633,103.163
1535,10,cloud,TRUE,3008,7.103000000000009,study,18,110.266,0,1,0.3,0.3,Inf,0,sub-047,1535,sub-047,sub-047,14,sub-14,0.3,6,0.1816,110.266
1535,21,color,TRUE,2952,5.854000000000013,study,24,129.442,0,1,0.3,0.3,Inf,0,sub-047,1535,sub-047,sub-047,14,sub-14,0.3,5,0.1016,129.442
1535,13,song,TRUE,5341,9.158999999999992,study,25,138.601,0,1,0.3,0.3,Inf,0,sub-047,1535,sub-047,sub-047,14,sub-14,0.3,9,0.2977,138.601
1535,18,friend,TRUE,1676,4.910000000000025,study,28,148.497,0,1,0.3,0.3,Inf,0,sub-047,1535,sub-047,sub-047,14,sub-14,0.3,5,0.1016,148.497
1535,20,bike,TRUE,5240,7.84699999999998,study,29,156.344,0,1,0.3,0.3,Inf,0,sub-047,1535,sub-047,sub-047,14,sub-14,0.3,7,0.1508,156.344
1535,2,beer,TRUE,1980,7.843999999999994,study,34,186.061,0,1,0.3,0.3,Inf,0,sub-047,1535,sub-047,sub-047,14,sub-14,0.3,5,0.1016,186.061
1535,22,fruit,TRUE,2791,5.520999999999987,study,35,191.582,0,1,0.3,0.3,Inf,0,sub-047,1535,sub-047,sub-047,14,sub-14,0.3,5,0.1016,191.582
1535,4,pants,TRUE,5112,7.411999999999978,study,42,223.271,0,1,0.3,0.3,Inf,0,sub-047,1535,sub-047,sub-047,14,sub-14,0.3,5,0.1016,223.271
1535,25,language,TRUE,2616,6.892000000000024,study,43,230.163,0,1,0.3,0.3,Inf,0,sub-047,1535,sub-047,sub-047,14,sub-14,0.3,6,0.1512,230.163
1535,5,office,TRUE,2708,4.349000000000018,study,46,242.543,0,1,0.3,0.3,Inf,0,sub-047,1535,sub-047,sub-047,14,sub-14,0.3,5,0.1516,242.543
1535,12,book,TRUE,4447,6.139999999999986,study,52,261.258,0,1,0.3,0.3,Inf,0,sub-047,1535,sub-047,sub-047,14,sub-14,0.3,22,0.3715,261.258
1535,1,enemy,TRUE,2924,6.090000000000032,study,53,267.348,0,1,0.3,0.3,Inf,0,sub-047,1535,sub-047,sub-047,14,sub-14,0.3,5,0.1016,267.348
1535,14,voice,TRUE,3412,5.600999999999999,study,56,280.435,0,1,0.3,0.3,Inf,0,sub-047,1535,sub-047,sub-047,14,sub-14,0.3,7,0.1648,280.435
1535,19,wheel,TRUE,5074,6.925999999999988,study,61,308.616,0,1,0.3,0.3,Inf,0,sub-047,1535,sub-047,sub-047,14,sub-14,0.3,7,0.1453,308.616
1535,17,holidays,TRUE,2524,5.984000000000037,study,62,314.6,0,1,0.3,0.3,Inf,0,sub-047,1535,sub-047,sub-047,14,sub-14,0.3,5,0.157,314.6
1535,15,thanks,TRUE,2578,5.199999999999989,study,70,347.127,0,1,0.3,0.3,Inf,0,sub-047,1535,sub-047,sub-047,14,sub-14,0.3,8,0.2207,347.127
1535,9,police,TRUE,2184,8.625,study,71,355.752,0,1,0.3,0.3,Inf,0,sub-047,1535,sub-047,sub-047,14,sub-14,0.3,5,0.1516,355.752
1535,23,pain,TRUE,2340,7.665999999999997,study,77,380.205,0,1,0.3,0.3,Inf,0,sub-047,1535,sub-047,sub-047,14,sub-14,0.3,5,0.1016,380.205
1536,21,color,TRUE,5406,6.118,study,1,6.118,0,1,0.3,0.3,Inf,0,sub-051,1536,sub-051,sub-051,15,sub-15,0.3,8,0.3621,6.118
1536,17,holidays,TRUE,3387,5.180999999999999,study,3,13.936,0,1,0.3,0.3,Inf,0,sub-051,1536,sub-051,sub-051,15,sub-15,0.3,6,0.3473,13.936
1536,1,enemy,TRUE,2495,3.663999999999998,study,5,20.461,0,1,0.3,0.3,Inf,0,sub-051,1536,sub-051,sub-051,15,sub-15,0.3,5,0.3,20.461
1536,24,shop,TRUE,2882,4.460000000000001,study,6,24.921,0,1,0.3,0.3,Inf,0,sub-051,1536,sub-051,sub-051,15,sub-15,0.3,8,0.4402,24.921
1536,14,voice,TRUE,1713,3.134999999999998,study,10,34.336,0,1,0.3,0.3,Inf,0,sub-051,1536,sub-051,sub-051,15,sub-15,0.3,8,0.4418,34.336
1536,16,work,TRUE,1257,2.3249999999999993,study,9,31.201,0,1,0.3,0.3,Inf,0,sub-051,1536,sub-051,sub-051,15,sub-15,0.3,11,0.4359,31.201
1536,13,song,TRUE,1149,2.246000000000002,study,13,40.689,0,1,0.3,0.3,Inf,0,sub-051,1536,sub-051,sub-051,15,sub-15,0.3,6,0.2996,40.689
1536,23,pain,TRUE,1615,3.1030000000000015,study,14,43.792,0,1,0.3,0.3,Inf,0,sub-051,1536,sub-051,sub-051,15,sub-15,0.3,7,0.3383,43.792
1536,5,office,TRUE,3348,4.6370000000000005,study,17,51.973,0,1,0.3,0.3,Inf,0,sub-051,1536,sub-051,sub-051,15,sub-15,0.3,6,0.3809,51.973
1536,15,thanks,TRUE,1796,6.374000000000009,study,21,73.063,0,1,0.3,0.3,Inf,0,sub-051,1536,sub-051,sub-051,15,sub-15,0.3,11,0.525,73.063
1536,8,music,TRUE,2306,3.7760000000000105,study,43,199.46,0,1,0.3,0.3,Inf,0,sub-051,1536,sub-051,sub-051,15,sub-15,0.3,7,0.3242,199.46
1536,3,fish,TRUE,1291,2.5900000000000034,study,44,202.05,0,1,0.3,0.3,Inf,0,sub-051,1536,sub-051,sub-051,15,sub-15,0.3,3,0.2008,202.05
1536,19,wheel,TRUE,1595,2.8170000000000073,study,50,227.612,0,1,0.3,0.3,Inf,0,sub-051,1536,sub-051,sub-051,15,sub-15,0.3,13,0.5227,227.612
1536,25,language,TRUE,2152,3.519999999999982,study,53,235.575,0,1,0.3,0.3,Inf,0,sub-051,1536,sub-051,sub-051,15,sub-15,0.3,4,0.2504,235.575
1536,22,fruit,TRUE,2205,3.492000000000018,study,54,239.067,0,1,0.3,0.3,Inf,0,sub-051,1536,sub-051,sub-051,15,sub-15,0.3,8,0.3879,239.067
1536,4,pants,TRUE,972,2.131,study,57,246.141,0,1,0.3,0.3,Inf,0,sub-051,1536,sub-051,sub-051,15,sub-15,0.3,9,0.4305,246.141
1536,10,cloud,TRUE,1188,2.4329999999999927,study,73,339.687,0,1,0.3,0.3,Inf,0,sub-051,1536,sub-051,sub-051,15,sub-15,0.3,2,0.2504,339.687
1536,2,beer,TRUE,1429,5.941000000000031,study,138,712.769,0,1,0.3,0.3,Inf,0,sub-051,1536,sub-051,sub-051,15,sub-15,0.3,1,0.3,712.769
1540,6,monkey,TRUE,2669,6.418,study,1,6.418,0,1,0.3,0.3,Inf,0,sub-058,1540,sub-058,sub-058,16,sub-16,0.3,11,0.3914,6.418
1540,14,voice,TRUE,2125,3.844999999999999,study,3,13.793,0,1,0.3,0.3,Inf,0,sub-058,1540,sub-058,sub-058,16,sub-16,0.3,10,0.323,13.793
1540,24,shop,TRUE,2349,3.782,study,5,20.218,0,1,0.3,0.3,Inf,0,sub-058,1540,sub-058,sub-058,16,sub-16,0.3,3,0.2125,20.218
1540,18,friend,TRUE,465,3.776,study,6,23.994,0,1,0.3,0.3,Inf,0,sub-058,1540,sub-058,sub-058,16,sub-16,0.3,3,0.2008,23.994
1540,8,music,TRUE,1805,3.726000000000002,study,9,33.578,0,1,0.3,0.3,Inf,0,sub-058,1540,sub-058,sub-058,16,sub-16,0.3,5,0.2656,33.578
1540,25,language,TRUE,1865,4.9709999999999965,study,10,38.549,0,1,0.3,0.3,Inf,0,sub-058,1540,sub-058,sub-058,16,sub-16,0.3,3,0.2008,38.549
1540,17,holidays,TRUE,2697,7.563000000000002,study,13,55.387,0,1,0.3,0.3,Inf,0,sub-058,1540,sub-058,sub-058,16,sub-16,0.3,3,0.2063,55.387
1540,1,enemy,TRUE,2173,5.064000000000021,study,25,138.234,0,1,0.3,0.3,Inf,0,sub-058,1540,sub-058,sub-058,16,sub-16,0.3,4,0.191,138.234
1540,21,color,TRUE,1585,4.079999999999984,study,29,180.837,0,1,0.3,0.3,Inf,0,sub-058,1540,sub-058,sub-058,16,sub-16,0.3,4,0.2824,180.837
1540,12,book,TRUE,3319,5.794000000000011,study,30,186.631,0,1,0.3,0.3,Inf,0,sub-058,1540,sub-058,sub-058,16,sub-16,0.3,5,0.3258,186.631
1540,9,police,TRUE,2329,4.662000000000006,study,36,214.216,0,1,0.3,0.3,Inf,0,sub-058,1540,sub-058,sub-058,16,sub-16,0.3,3,0.2008,214.216
1540,22,fruit,TRUE,1379,6.033999999999992,study,37,220.25,0,1,0.3,0.3,Inf,0,sub-058,1540,sub-058,sub-058,16,sub-16,0.3,6,0.2996,220.25
1540,23,pain,TRUE,4368,6.222000000000008,study,40,232.461,0,1,0.3,0.3,Inf,0,sub-058,1540,sub-058,sub-058,16,sub-16,0.3,3,0.2281,232.461
1540,15,thanks,TRUE,1982,6.182000000000016,study,45,252.31,0,1,0.3,0.3,Inf,0,sub-058,1540,sub-058,sub-058,16,sub-16,0.3,5,0.3398,252.31
1540,10,cloud,TRUE,1856,9.769999999999982,study,46,262.08,0,1,0.3,0.3,Inf,0,sub-058,1540,sub-058,sub-058,16,sub-16,0.3,3,0.2008,262.08
1540,5,office,TRUE,3365,12.875999999999976,study,54,318.666,0,1,0.3,0.3,Inf,0,sub-058,1540,sub-058,sub-058,16,sub-16,0.3,4,0.3004,318.666
1540,13,song,TRUE,1866,11.101,study,63,394.988,0,1,0.3,0.3,Inf,0,sub-058,1540,sub-058,sub-058,16,sub-16,0.3,4,0.2809,394.988
1540,20,bike,TRUE,4708,7.043999999999983,study,69,419.866,0,1,0.3,0.3,Inf,0,sub-058,1540,sub-058,sub-058,16,sub-16,0.3,3,0.2008,419.866
1540,3,fish,TRUE,3599,6.564000000000021,study,70,426.43,0,1,0.3,0.3,Inf,0,sub-058,1540,sub-058,sub-058,16,sub-16,0.3,3,0.2008,426.43
1540,16,work,TRUE,1482,9.937000000000012,study,76,451.963,0,1,0.3,0.3,Inf,0,sub-058,1540,sub-058,sub-058,16,sub-16,0.3,5,0.3438,451.963
1540,7,eye,TRUE,14247,15.521999999999991,study,79,475.881,0,1,0.3,0.3,Inf,0,sub-058,1540,sub-058,sub-058,16,sub-16,0.3,3,0.2008,475.881
1540,2,beer,TRUE,14500,15.968000000000018,study,83,498.993,0,1,0.3,0.3,Inf,0,sub-058,1540,sub-058,sub-058,16,sub-16,0.3,3,0.2008,498.993
1540,4,pants,TRUE,4577,6.185000000000002,study,84,505.178,0,1,0.3,0.3,Inf,0,sub-058,1540,sub-058,sub-058,16,sub-16,0.3,3,0.2008,505.178
1540,11,chicken,TRUE,2187,3.7649999999999864,study,89,525.128,0,1,0.3,0.3,Inf,0,sub-058,1540,sub-058,sub-058,16,sub-16,0.3,3,0.2008,525.128
1540,19,wheel,TRUE,12929,16.859000000000037,study,95,558.791,0,1,0.3,0.3,Inf,0,sub-058,1540,sub-058,sub-058,16,sub-16,0.3,3,0.2422,558.791
1542,10,cloud,TRUE,1420,2.232,study,1,2.232,0,1,0.3,0.3,Inf,0,sub-006,1542,sub-006,sub-006,17,sub-17,0.3,5,0.25,2.232
1542,12,book,TRUE,2772,6.828999999999999,study,3,13.854,0,1,0.3,0.3,Inf,0,sub-006,1542,sub-006,sub-006,17,sub-17,0.3,8,0.4004,13.854
1542,9,police,TRUE,2532,4.010999999999999,study,5,20.23,0,1,0.3,0.3,Inf,0,sub-006,1542,sub-006,sub-006,17,sub-17,0.3,3,0.375,20.23
1542,20,bike,TRUE,1688,3.9349999999999983,study,6,24.165,0,1,0.3,0.3,Inf,0,sub-006,1542,sub-006,sub-006,17,sub-17,0.3,12,0.4082,24.165
1542,25,language,TRUE,3159,6.0440000000000005,study,9,37.804,0,1,0.3,0.3,Inf,0,sub-006,1542,sub-006,sub-006,17,sub-17,0.3,4,0.2504,37.804
1542,11,chicken,TRUE,1415,5.335000000000001,study,10,43.139,0,1,0.3,0.3,Inf,0,sub-006,1542,sub-006,sub-006,17,sub-17,0.3,4,0.2504,43.139
1542,18,friend,TRUE,2403,4.442000000000007,study,18,94.882,0,1,0.3,0.3,Inf,0,sub-006,1542,sub-006,sub-006,17,sub-17,0.3,3,0.2008,94.882
1542,8,music,TRUE,2704,5.667000000000002,study,23,114.005,0,1,0.3,0.3,Inf,0,sub-006,1542,sub-006,sub-006,17,sub-17,0.3,3,0.2492,114.005
1542,24,shop,TRUE,2807,4.203000000000003,study,24,118.208,0,1,0.3,0.3,Inf,0,sub-006,1542,sub-006,sub-006,17,sub-17,0.3,9,0.3961,118.208
1542,13,song,TRUE,1407,10.718999999999994,study,28,147.355,0,1,0.3,0.3,Inf,0,sub-006,1542,sub-006,sub-006,17,sub-17,0.3,14,0.4715,147.355
1542,19,duara,FALSE,2409,3.930000000000007,study,32,163.513,5,1,0.3,0.3,Inf,0,sub-006,1542,sub-006,sub-006,17,sub-17,0.3,8,0.3996,163.513
1542,5,afisi,FALSE,1528,3.7600000000000193,study,37,194.775,4,1,0.3,0.3,Inf,0,sub-006,1542,sub-006,sub-006,17,sub-17,0.3,5,0.3406,194.775
1542,23,pain,TRUE,2547,4.627999999999986,study,50,313.416,0,1,0.3,0.3,Inf,0,sub-006,1542,sub-006,sub-006,17,sub-17,0.3,3,0.3,313.416
1542,4,pants,TRUE,3233,7.8349999999999795,study,51,321.251,0,1,0.3,0.3,Inf,0,sub-006,1542,sub-006,sub-006,17,sub-17,0.3,6,0.4145,321.251
1542,2,beer,TRUE,2118,6.060000000000002,study,61,373.227,0,1,0.3,0.3,Inf,0,sub-006,1542,sub-006,sub-006,17,sub-17,0.3,4,0.2746,373.227
1542,6,monkey,TRUE,4196,7.673000000000002,study,67,397.202,0,1,0.3,0.3,Inf,0,sub-006,1542,sub-006,sub-006,17,sub-17,0.3,4,0.2754,397.202
1542,15,shukuru,FALSE,1532,5.217999999999961,study,89,513.001,6,1,0.3,0.3,Inf,0,sub-006,1542,sub-006,sub-006,17,sub-17,0.3,4,0.2926,513.001
1542,16,work,TRUE,1635,2.978999999999928,study,95,534.934,0,1,0.3,0.3,Inf,0,sub-006,1542,sub-006,sub-006,17,sub-17,0.3,3,0.2008,534.934
1542,1,enemy,TRUE,1151,5.872000000000071,study,96,540.806,0,1,0.3,0.3,Inf,0,sub-006,1542,sub-006,sub-006,17,sub-17,0.3,2,0.2504,540.806
1542,22,fruit,TRUE,1273,3.2779999999999063,study,102,559.358,0,1,0.3,0.3,Inf,0,sub-006,1542,sub-006,sub-006,17,sub-17,0.3,4,0.2621,559.358
1542,21,color,TRUE,1223,4.329000000000065,study,103,563.687,0,1,0.3,0.3,Inf,0,sub-006,1542,sub-006,sub-006,17,sub-17,0.3,5,0.2906,563.687
1542,7,eye,TRUE,1835,3.3349999999999227,study,107,576.083,0,1,0.3,0.3,Inf,0,sub-006,1542,sub-006,sub-006,17,sub-17,0.3,3,0.3469,576.083
1542,14,voice,TRUE,1497,2.6779999999999973,study,108,578.761,0,1,0.3,0.3,Inf,0,sub-006,1542,sub-006,sub-006,17,sub-17,0.3,5,0.4773,578.761
1542,3,fish,TRUE,996,2.6359999999999673,study,112,587.712,0,1,0.3,0.3,Inf,0,sub-006,1542,sub-006,sub-006,17,sub-17,0.3,4,0.2504,587.712
1542,17,holidays,TRUE,2035,5.211000000000013,study,116,601.49,0,1,0.3,0.3,Inf,0,sub-006,1542,sub-006,sub-006,17,sub-17,0.3,4,0.2996,601.49
1552,1,enemy,TRUE,7157,8.166,study,1,8.166,0,1,0.3,0.3,Inf,0,sub-033,1552,sub-033,sub-033,18,sub-18,0.3,4,0.2504,8.166
1552,14,voice,TRUE,2156,3.9750000000000014,study,3,15.037,0,1,0.3,0.3,Inf,0,sub-033,1552,sub-033,sub-033,18,sub-18,0.3,8,0.377,15.037
1552,8,music,TRUE,2145,4.271000000000001,study,5,22.079,0,1,0.3,0.3,Inf,0,sub-033,1552,sub-033,sub-033,18,sub-18,0.3,6,0.2996,22.079
1552,16,work,TRUE,4949,7.643000000000001,study,6,29.722,0,1,0.3,0.3,Inf,0,sub-033,1552,sub-033,sub-033,18,sub-18,0.3,5,0.3367,29.722
1552,23,pain,TRUE,2736,5.381,study,9,40.371,0,1,0.3,0.3,Inf,0,sub-033,1552,sub-033,sub-033,18,sub-18,0.3,3,0.2008,40.371
1552,4,pants,TRUE,2568,4.632999999999996,study,10,45.004,0,1,0.3,0.3,Inf,0,sub-033,1552,sub-033,sub-033,18,sub-18,0.3,6,0.2754,45.004
1552,3,fish,TRUE,2653,3.8999999999999986,study,13,55.989,0,1,0.3,0.3,Inf,0,sub-033,1552,sub-033,sub-033,18,sub-18,0.3,5,0.3531,55.989
1552,5,office,TRUE,2334,3.882000000000005,study,21,102.81,0,1,0.3,0.3,Inf,0,sub-033,1552,sub-033,sub-033,18,sub-18,0.3,3,0.2008,102.81
1552,6,monkey,TRUE,1903,5.184000000000012,study,25,118.513,0,1,0.3,0.3,Inf,0,sub-033,1552,sub-033,sub-033,18,sub-18,0.3,4,0.2504,118.513
1552,24,shop,TRUE,3513,5.018999999999991,study,26,123.532,0,1,0.3,0.3,Inf,0,sub-033,1552,sub-033,sub-033,18,sub-18,0.3,8,0.3504,123.532
1552,20,bike,TRUE,2231,3.445999999999998,study,30,150.165,0,1,0.3,0.3,Inf,0,sub-033,1552,sub-033,sub-033,18,sub-18,0.3,3,0.2008,150.165
1552,15,thanks,TRUE,2911,4.436000000000007,study,31,154.601,0,1,0.3,0.3,Inf,0,sub-033,1552,sub-033,sub-033,18,sub-18,0.3,5,0.3367,154.601
1552,22,fruit,TRUE,3635,5.14500000000001,study,35,168.699,0,1,0.3,0.3,Inf,0,sub-033,1552,sub-033,sub-033,18,sub-18,0.3,5,0.325,168.699
1552,21,color,TRUE,1468,5.1769999999999925,study,36,173.876,0,1,0.3,0.3,Inf,0,sub-033,1552,sub-033,sub-033,18,sub-18,0.3,4,0.2254,173.876
1552,25,language,TRUE,1566,5.490000000000009,study,40,187.728,0,1,0.3,0.3,Inf,0,sub-033,1552,sub-033,sub-033,18,sub-18,0.3,4,0.2504,187.728
1552,9,police,TRUE,1230,3.1380000000000052,study,41,190.866,0,1,0.3,0.3,Inf,0,sub-033,1552,sub-033,sub-033,18,sub-18,0.3,3,0.243,190.866
1552,10,cloud,TRUE,1634,3.2620000000000005,study,48,215.807,0,1,0.3,0.3,Inf,0,sub-033,1552,sub-033,sub-033,18,sub-18,0.3,4,0.2504,215.807
1552,18,friend,TRUE,1285,2.787000000000006,study,49,218.594,0,1,0.3,0.3,Inf,0,sub-033,1552,sub-033,sub-033,18,sub-18,0.3,4,0.2504,218.594
1552,17,holidays,TRUE,2010,4.7190000000000225,study,57,260.593,0,1,0.3,0.3,Inf,0,sub-033,1552,sub-033,sub-033,18,sub-18,0.3,7,0.3516,260.593
1552,2,beer,TRUE,1696,2.9710000000000036,study,58,263.564,0,1,0.3,0.3,Inf,0,sub-033,1552,sub-033,sub-033,18,sub-18,0.3,4,0.2996,263.564
1552,11,chicken,TRUE,1433,3.119000000000028,study,64,302.701,0,1,0.3,0.3,Inf,0,sub-033,1552,sub-033,sub-033,18,sub-18,0.3,3,0.2008,302.701
1552,12,book,TRUE,1693,3.561999999999955,study,65,306.263,0,1,0.3,0.3,Inf,0,sub-033,1552,sub-033,sub-033,18,sub-18,0.3,9,0.4734,306.263
1552,13,song,TRUE,1618,2.9610000000000127,study,77,380.32,0,1,0.3,0.3,Inf,0,sub-033,1552,sub-033,sub-033,18,sub-18,0.3,4,0.2996,380.32
1552,7,eye,TRUE,1373,3.997000000000014,study,78,384.317,0,1,0.3,0.3,Inf,0,sub-033,1552,sub-033,sub-033,18,sub-18,0.3,2,0.2504,384.317
1552,19,wheel,TRUE,1493,2.960999999999956,study,81,392.888,0,1,0.3,0.3,Inf,0,sub-033,1552,sub-033,sub-033,18,sub-18,0.3,4,0.2504,392.888
1557,13,song,TRUE,1783,3.199,study,1,3.199,0,1,0.3,0.3,Inf,0,sub-042,1557,sub-042,sub-042,19,sub-19,0.3,5,0.2789,3.199
1557,15,thanks,TRUE,1710,3.602999999999999,study,3,10.056,0,1,0.3,0.3,Inf,0,sub-042,1557,sub-042,sub-042,19,sub-19,0.3,11,0.4305,10.056
1557,25,language,TRUE,1421,4.920999999999999,study,5,19.438,0,1,0.3,0.3,Inf,0,sub-042,1557,sub-042,sub-042,19,sub-19,0.3,4,0.2504,19.438
1557,21,color,TRUE,1416,4.240000000000002,study,6,23.678,0,1,0.3,0.3,Inf,0,sub-042,1557,sub-042,sub-042,19,sub-19,0.3,11,0.4922,23.678
1557,4,pants,TRUE,3945,6.104000000000006,study,9,39.767,0,1,0.3,0.3,Inf,0,sub-042,1557,sub-042,sub-042,19,sub-19,0.3,5,0.3227,39.767
1557,24,shop,TRUE,1495,3.532999999999994,study,10,43.3,0,1,0.3,0.3,Inf,0,sub-042,1557,sub-042,sub-042,19,sub-19,0.3,9,0.3367,43.3
1557,11,chicken,TRUE,1446,4.411000000000001,study,15,63.082,0,1,0.3,0.3,Inf,0,sub-042,1557,sub-042,sub-042,19,sub-19,0.3,3,0.2008,63.082
1557,16,work,TRUE,1629,3.591000000000001,study,16,66.673,0,1,0.3,0.3,Inf,0,sub-042,1557,sub-042,sub-042,19,sub-19,0.3,5,0.3234,66.673
1557,19,?,FALSE,65,4.079999999999998,study,21,86.575,5,1,0.3,0.3,Inf,0,sub-042,1557,sub-042,sub-042,19,sub-19,0.3,10,0.4137,86.575
1557,8,music,TRUE,1359,7.296999999999997,study,22,93.872,0,1,0.3,0.3,Inf,0,sub-042,1557,sub-042,sub-042,19,sub-19,0.3,3,0.2008,93.872
1557,5,office,TRUE,1222,3.0670000000000073,study,36,167.752,0,1,0.3,0.3,Inf,0,sub-042,1557,sub-042,sub-042,19,sub-19,0.3,5,0.3164,167.752
1557,18,friend,TRUE,2634,4.274999999999977,study,37,172.027,0,1,0.3,0.3,Inf,0,sub-042,1557,sub-042,sub-042,19,sub-19,0.3,10,0.4293,172.027
1557,22,fruit,TRUE,2244,4.3440000000000225,study,40,183.24,0,1,0.3,0.3,Inf,0,sub-042,1557,sub-042,sub-042,19,sub-19,0.3,4,0.2504,183.24
1557,9,police,TRUE,2134,7.105000000000018,study,45,220.805,0,1,0.3,0.3,Inf,0,sub-042,1557,sub-042,sub-042,19,sub-19,0.3,4,0.2504,220.805
1557,1,enemy,TRUE,2158,5.830999999999989,study,49,235.021,0,1,0.3,0.3,Inf,0,sub-042,1557,sub-042,sub-042,19,sub-19,0.3,3,0.2008,235.021
1557,10,cloud,TRUE,1742,6.585000000000036,study,54,264.437,0,1,0.3,0.3,Inf,0,sub-042,1557,sub-042,sub-042,19,sub-19,0.3,7,0.3055,264.437
1557,14,voice,TRUE,1500,3.0149999999999864,study,60,285.796,0,1,0.3,0.3,Inf,0,sub-042,1557,sub-042,sub-042,19,sub-19,0.3,7,0.3492,285.796
1557,23,pain,TRUE,2039,6.993999999999971,study,66,322.44,0,1,0.3,0.3,Inf,0,sub-042,1557,sub-042,sub-042,19,sub-19,0.3,4,0.2434,322.44
1557,6,monkey,TRUE,2383,5.161999999999978,study,67,327.602,0,1,0.3,0.3,Inf,0,sub-042,1557,sub-042,sub-042,19,sub-19,0.3,4,0.2504,327.602
1557,3,fish,TRUE,1803,3.007999999999982,study,72,352.5,0,1,0.3,0.3,Inf,0,sub-042,1557,sub-042,sub-042,19,sub-19,0.3,6,0.3559,352.5
1557,7,eye,TRUE,1300,2.5430000000000064,study,76,369.788,0,1,0.3,0.3,Inf,0,sub-042,1557,sub-042,sub-042,19,sub-19,0.3,3,0.2008,369.788
1557,2,beer,TRUE,2341,4.132000000000005,study,77,373.92,0,1,0.3,0.3,Inf,0,sub-042,1557,sub-042,sub-042,19,sub-19,0.3,4,0.2504,373.92
1557,17,holidays,TRUE,1677,3.8899999999999864,study,103,502.926,0,1,0.3,0.3,Inf,0,sub-042,1557,sub-042,sub-042,19,sub-19,0.3,5,0.3492,502.926
1557,20,bike,TRUE,2654,5.224999999999909,study,107,520.478,0,1,0.3,0.3,Inf,0,sub-042,1557,sub-042,sub-042,19,sub-19,0.3,5,0.3094,520.478
1557,12,book,TRUE,2940,4.217999999999961,study,114,551.699,0,1,0.3,0.3,Inf,0,sub-042,1557,sub-042,sub-042,19,sub-19,0.3,18,0.5324,551.699
29212,16,work,TRUE,2160,3.478,study,1,3.478,0,1,0.3,0.3,Inf,0,sub-002,28212,NA,sub-002,2,sub-02,0.3,9,0.2516,3.478
29212,1,enemy,TRUE,1715,3.280000000000001,study,3,9.38,0,1,0.3,0.3,Inf,0,sub-002,28212,NA,sub-002,2,sub-02,0.3,11,0.2883,9.38
29212,12,book,TRUE,1801,3.024000000000001,study,5,15.076,0,1,0.3,0.3,Inf,0,sub-002,28212,NA,sub-002,2,sub-02,0.3,9,0.2836,15.076
29212,22,fruit,TRUE,1639,3.1999999999999993,study,6,18.276,0,1,0.3,0.3,Inf,0,sub-002,28212,NA,sub-002,2,sub-02,0.3,8,0.2355,18.276
29212,4,pants,TRUE,1942,3.103999999999999,study,9,26.836,0,1,0.3,0.3,Inf,0,sub-002,28212,NA,sub-002,2,sub-02,0.3,4,0.1512,26.836
29212,21,color,TRUE,1013,2.529,study,10,29.365,0,1,0.3,0.3,Inf,0,sub-002,28212,NA,sub-002,2,sub-02,0.3,5,0.2008,29.365
29212,23,pain,TRUE,1146,2.4170000000000016,study,13,36.34,0,1,0.3,0.3,Inf,0,sub-002,28212,NA,sub-002,2,sub-02,0.3,6,0.1754,36.34
29212,6,monkey,TRUE,1113,2.783999999999999,study,14,39.124,0,1,0.3,0.3,Inf,0,sub-002,28212,NA,sub-002,2,sub-02,0.3,6,0.2004,39.124
29212,2,beer,TRUE,1142,2.271000000000001,study,19,57.284,0,1,0.3,0.3,Inf,0,sub-002,28212,NA,sub-002,2,sub-02,0.3,5,0.225,57.284
29212,9,police,TRUE,1202,2.8320000000000007,study,20,60.116,0,1,0.3,0.3,Inf,0,sub-002,28212,NA,sub-002,2,sub-02,0.3,7,0.25,60.116
29212,20,bike,TRUE,979,2.8800000000000097,study,30,99.54,0,1,0.3,0.3,Inf,0,sub-002,28212,NA,sub-002,2,sub-02,0.3,6,0.2004,99.54
29212,13,song,TRUE,1149,2.3840000000000003,study,31,101.924,0,1,0.3,0.3,Inf,0,sub-002,28212,NA,sub-002,2,sub-02,0.3,16,0.3559,101.924
29212,25,language,TRUE,1337,2.9920000000000044,study,38,126.708,0,1,0.3,0.3,Inf,0,sub-002,28212,NA,sub-002,2,sub-02,0.3,5,0.2008,126.708
29212,8,music,TRUE,1030,2.5270000000000152,study,39,129.235,0,1,0.3,0.3,Inf,0,sub-002,28212,NA,sub-002,2,sub-02,0.3,4,0.1512,129.235
29212,18,friend,TRUE,1097,2.782999999999987,study,42,137.731,0,1,0.3,0.3,Inf,0,sub-002,28212,NA,sub-002,2,sub-02,0.3,4,0.1512,137.731
29212,10,cloud,TRUE,976,2.288000000000011,study,43,140.019,0,1,0.3,0.3,Inf,0,sub-002,28212,NA,sub-002,2,sub-02,0.3,9,0.332,140.019
29212,5,office,TRUE,1347,3.4410000000000025,study,49,160.596,0,1,0.3,0.3,Inf,0,sub-002,28212,NA,sub-002,2,sub-02,0.3,7,0.25,160.596
29212,11,chicken,TRUE,1179,2.8479999999999848,study,50,163.444,0,1,0.3,0.3,Inf,0,sub-002,28212,NA,sub-002,2,sub-02,0.3,5,0.1695,163.444
29212,15,thanks,TRUE,1310,2.960000000000008,study,54,174.995,0,1,0.3,0.3,Inf,0,sub-002,28212,NA,sub-002,2,sub-02,0.3,7,0.2484,174.995
29212,7,eye,TRUE,1677,3.007000000000005,study,60,209.251,0,1,0.3,0.3,Inf,0,sub-002,28212,NA,sub-002,2,sub-02,0.3,6,0.1512,209.251
29212,24,shop,TRUE,1212,2.6570000000000107,study,65,223.924,0,1,0.3,0.3,Inf,0,sub-002,28212,NA,sub-002,2,sub-02,0.3,10,0.3191,223.924
29212,3,fish,TRUE,1427,3.007999999999982,study,66,226.932,0,1,0.3,0.3,Inf,0,sub-002,28212,NA,sub-002,2,sub-02,0.3,5,0.1672,226.932
29212,19,wheel,TRUE,1262,2.8959999999999866,study,69,234.148,0,1,0.3,0.3,Inf,0,sub-002,28212,NA,sub-002,2,sub-02,0.3,6,0.2566,234.148
29212,17,holidays,TRUE,2285,7.504000000000019,study,81,323.283,0,1,0.3,0.3,Inf,0,sub-002,28212,NA,sub-002,2,sub-02,0.3,11,0.3789,323.283
29212,14,voice,TRUE,1720,3.4399999999999977,study,86,350.532,0,1,0.3,0.3,Inf,0,sub-002,28212,NA,sub-002,2,sub-02,0.3,12,0.3277,350.532
29220,24,shop,TRUE,8114,16.474,study,1,16.474,0,1,0.3,0.3,Inf,0,sub-006,28220,NA,sub-006,17,sub-17,0.3,9,0.3961,16.474
29220,22,fruit,TRUE,3072,13.999999999999996,study,3,34.117,0,1,0.3,0.3,Inf,0,sub-006,28220,NA,sub-006,17,sub-17,0.3,4,0.2621,34.117
29220,6,monkey,TRUE,2497,5.935000000000002,study,5,43.573,0,1,0.3,0.3,Inf,0,sub-006,28220,NA,sub-006,17,sub-17,0.3,4,0.2754,43.573
29220,8,music,TRUE,1850,6.561,study,6,50.134,0,1,0.3,0.3,Inf,0,sub-006,28220,NA,sub-006,17,sub-17,0.3,3,0.2492,50.134
29220,2,beer,TRUE,2662,4.768000000000001,study,9,63.189,0,1,0.3,0.3,Inf,0,sub-006,28220,NA,sub-006,17,sub-17,0.3,4,0.2746,63.189
29220,11,kuku,FALSE,1377,3.407999999999994,study,10,66.597,6,1,0.3,0.3,Inf,0,sub-006,28220,NA,sub-006,17,sub-17,0.3,4,0.2504,66.597
29220,16,work,TRUE,1594,3.823999999999998,study,18,129.141,0,1,0.3,0.3,Inf,0,sub-006,28220,NA,sub-006,17,sub-17,0.3,3,0.2008,129.141
29220,12,book,TRUE,1791,3.885999999999996,study,22,143.796,0,1,0.3,0.3,Inf,0,sub-006,28220,NA,sub-006,17,sub-17,0.3,8,0.4004,143.796
29220,21,rangi,FALSE,1363,6.609000000000009,study,23,150.405,5,1,0.3,0.3,Inf,0,sub-006,28220,NA,sub-006,17,sub-17,0.3,5,0.2906,150.405
29220,15,thanks,TRUE,1574,5.00800000000001,study,28,200.709,0,1,0.3,0.3,Inf,0,sub-006,28220,NA,sub-006,17,sub-17,0.3,4,0.2926,200.709
29220,20,bike,TRUE,1383,3.0080000000000098,study,29,203.717,0,1,0.3,0.3,Inf,0,sub-006,28220,NA,sub-006,17,sub-17,0.3,12,0.4082,203.717
29220,17,likizo,FALSE,3674,7.296999999999997,study,36,261.173,6,1,0.3,0.3,Inf,0,sub-006,28220,NA,sub-006,17,sub-17,0.3,4,0.2996,261.173
29220,3,fish,TRUE,2549,6.6089999999999804,study,40,288.981,0,1,0.3,0.3,Inf,0,sub-006,28220,NA,sub-006,17,sub-17,0.3,4,0.2504,288.981
29220,10,cloud,TRUE,1198,4.288000000000011,study,41,293.269,0,1,0.3,0.3,Inf,0,sub-006,28220,NA,sub-006,17,sub-17,0.3,5,0.25,293.269
29220,5,afisi,FALSE,2054,6,study,45,308.996,4,1,0.3,0.3,Inf,0,sub-006,28220,NA,sub-006,17,sub-17,0.3,5,0.3406,308.996
29220,25,lugha,FALSE,1465,4.3519999999999754,study,49,338.693,5,1,0.3,0.3,Inf,0,sub-006,28220,NA,sub-006,17,sub-17,0.3,4,0.2504,338.693
29220,4,pants,TRUE,1957,5.057999999999993,study,53,358.55,0,1,0.3,0.3,Inf,0,sub-006,28220,NA,sub-006,17,sub-17,0.3,6,0.4145,358.55
29220,23,maumiva,FALSE,1382,6.574999999999989,study,54,365.125,5,1,0.3,0.3,Inf,0,sub-006,28220,NA,sub-006,17,sub-17,0.3,3,0.3,365.125
29220,18,friend,TRUE,2699,5.360000000000014,study,76,528.212,0,1,0.3,0.3,Inf,0,sub-006,28220,NA,sub-006,17,sub-17,0.3,3,0.2008,528.212
29220,19,wheel,TRUE,1412,5.56899999999996,study,77,533.781,0,1,0.3,0.3,Inf,0,sub-006,28220,NA,sub-006,17,sub-17,0.3,8,0.3996,533.781
29220,1,adui,FALSE,1497,3.552000000000021,study,80,543.157,5,1,0.3,0.3,Inf,0,sub-006,28220,NA,sub-006,17,sub-17,0.3,2,0.2504,543.157
29220,9,police,TRUE,1116,7.344000000000051,study,84,572.677,0,1,0.3,0.3,Inf,0,sub-006,28220,NA,sub-006,17,sub-17,0.3,3,0.375,572.677
29220,7,eye,TRUE,1594,4.032000000000039,study,101,657.268,0,1,0.3,0.3,Inf,0,sub-006,28220,NA,sub-006,17,sub-17,0.3,3,0.3469,657.268
29220,13,song,TRUE,1187,2.8799999999999955,study,104,665.188,0,1,0.3,0.3,Inf,0,sub-006,28220,NA,sub-006,17,sub-17,0.3,14,0.4715,665.188
29220,14,voice,TRUE,1324,3.633000000000038,study,105,668.821,0,1,0.3,0.3,Inf,0,sub-006,28220,NA,sub-006,17,sub-17,0.3,5,0.4773,668.821
29221,23,pain,TRUE,5926,7.677,study,1,7.677,0,1,0.3,0.3,Inf,0,sub-007,28221,NA,sub-007,20,sub-20,0.3,8,0.2723,7.677
29221,22,fruit,TRUE,3193,6.095999999999998,study,3,18.412,0,1,0.3,0.3,Inf,0,sub-007,28221,NA,sub-007,20,sub-20,0.3,9,0.3031,18.412
29221,9,police,TRUE,1657,3.471,study,5,25.373,0,1,0.3,0.3,Inf,0,sub-007,28221,NA,sub-007,20,sub-20,0.3,11,0.3516,25.373
29221,24,shop,TRUE,2819,5.454999999999998,study,6,30.828,0,1,0.3,0.3,Inf,0,sub-007,28221,NA,sub-007,20,sub-20,0.3,7,0.325,30.828
29221,18,friend,TRUE,1206,2.640000000000001,study,9,45.02,0,1,0.3,0.3,Inf,0,sub-007,28221,NA,sub-007,20,sub-20,0.3,5,0.232,45.02
29221,6,monkey,TRUE,1194,2.846999999999994,study,10,47.867,0,1,0.3,0.3,Inf,0,sub-007,28221,NA,sub-007,20,sub-20,0.3,5,0.2008,47.867
29221,20,bike,TRUE,1160,3.584000000000003,study,13,56.011,0,1,0.3,0.3,Inf,0,sub-007,28221,NA,sub-007,20,sub-20,0.3,6,0.2316,56.011
29221,17,holidays,TRUE,1342,8.384999999999991,study,17,76.332,0,1,0.3,0.3,Inf,0,sub-007,28221,NA,sub-007,20,sub-20,0.3,6,0.284,76.332
29221,12,book,TRUE,1277,2.7520000000000095,study,18,79.084,0,1,0.3,0.3,Inf,0,sub-007,28221,NA,sub-007,20,sub-20,0.3,4,0.1512,79.084
29221,2,beer,TRUE,1169,3.343999999999994,study,34,154.827,0,1,0.3,0.3,Inf,0,sub-007,28221,NA,sub-007,20,sub-20,0.3,4,0.1512,154.827
29221,19,wheel,TRUE,2009,3.391999999999996,study,35,158.219,0,1,0.3,0.3,Inf,0,sub-007,28221,NA,sub-007,20,sub-20,0.3,6,0.2434,158.219
29221,7,eye,TRUE,1415,7.872000000000014,study,43,206.555,0,1,0.3,0.3,Inf,0,sub-007,28221,NA,sub-007,20,sub-20,0.3,4,0.1512,206.555
29221,16,work,TRUE,892,5.920000000000016,study,47,226.091,0,1,0.3,0.3,Inf,0,sub-007,28221,NA,sub-007,20,sub-20,0.3,3,0.2008,226.091
29221,14,voice,TRUE,1164,2.5439999999999827,study,48,228.635,0,1,0.3,0.3,Inf,0,sub-007,28221,NA,sub-007,20,sub-20,0.3,9,0.3438,228.635
29221,25,language,TRUE,1178,3.2479999999999905,study,54,246.059,0,1,0.3,0.3,Inf,0,sub-007,28221,NA,sub-007,20,sub-20,0.3,3,0.2008,246.059
29221,15,thanks,TRUE,2046,4.463999999999999,study,55,250.523,0,1,0.3,0.3,Inf,0,sub-007,28221,NA,sub-007,20,sub-20,0.3,3,0.2008,250.523
29221,21,color,TRUE,956,4.801000000000045,study,60,265.196,0,1,0.3,0.3,Inf,0,sub-007,28221,NA,sub-007,20,sub-20,0.3,18,0.5012,265.196
29221,4,pants,TRUE,1144,3.534999999999968,study,61,268.731,0,1,0.3,0.3,Inf,0,sub-007,28221,NA,sub-007,20,sub-20,0.3,3,0.2008,268.731
29221,8,music,TRUE,1198,2.9279999999999973,study,72,329.467,0,1,0.3,0.3,Inf,0,sub-007,28221,NA,sub-007,20,sub-20,0.3,3,0.2008,329.467
29221,3,fish,TRUE,921,4.256000000000029,study,73,333.723,0,1,0.3,0.3,Inf,0,sub-007,28221,NA,sub-007,20,sub-20,0.3,16,0.5043,333.723
29221,13,song,TRUE,892,3.329999999999984,study,76,341.469,0,1,0.3,0.3,Inf,0,sub-007,28221,NA,sub-007,20,sub-20,0.3,3,0.2008,341.469
29221,11,chicken,TRUE,1032,2.9599999999999795,study,79,349.275,0,1,0.3,0.3,Inf,0,sub-007,28221,NA,sub-007,20,sub-20,0.3,3,0.2008,349.275
29221,1,enemy,TRUE,1044,3.2480000000000473,study,80,352.523,0,1,0.3,0.3,Inf,0,sub-007,28221,NA,sub-007,20,sub-20,0.3,5,0.2008,352.523
29221,5,office,TRUE,1325,3.3600000000000136,study,87,376.699,0,1,0.3,0.3,Inf,0,sub-007,28221,NA,sub-007,20,sub-20,0.3,3,0.2008,376.699
29221,10,cloud,TRUE,1229,2.606999999999971,study,108,473.354,0,1,0.3,0.3,Inf,0,sub-007,28221,NA,sub-007,20,sub-20,0.3,3,0.2008,473.354
29227,8,music,TRUE,9615,12.47,study,1,12.47,0,1,0.3,0.3,Inf,0,sub-013,28227,NA,sub-013,21,sub-21,0.3,4,0.2504,12.47
29227,1,enemy,TRUE,16155,20.224,study,3,35.765,0,1,0.3,0.3,Inf,0,sub-013,28227,NA,sub-013,21,sub-21,0.3,8,0.3871,35.765
29227,9,police,TRUE,9482,12.415,study,5,50.932,0,1,0.3,0.3,Inf,0,sub-013,28227,NA,sub-013,21,sub-21,0.3,3,0.2508,50.932
29227,24,shop,TRUE,23913,26.944999999999993,study,6,77.877,0,1,0.3,0.3,Inf,0,sub-013,28227,NA,sub-013,21,sub-21,0.3,3,0.2125,77.877
29227,3,fish,TRUE,9848,11.888999999999996,study,11,110.869,0,1,0.3,0.3,Inf,0,sub-013,28227,NA,sub-013,21,sub-21,0.3,4,0.2746,110.869
29227,17,holidays,TRUE,9355,15.967,study,12,126.836,0,1,0.3,0.3,Inf,0,sub-013,28227,NA,sub-013,21,sub-21,0.3,3,0.2594,126.836
29227,19,wheel,TRUE,5476,7.855000000000018,study,18,153.46,0,1,0.3,0.3,Inf,0,sub-013,28227,NA,sub-013,21,sub-21,0.3,16,0.5434,153.46
29227,18,friend,TRUE,3583,6.127999999999986,study,19,159.588,0,1,0.3,0.3,Inf,0,sub-013,28227,NA,sub-013,21,sub-21,0.3,3,0.2008,159.588
29227,20,bike,TRUE,5014,6.561000000000007,study,23,179.685,0,1,0.3,0.3,Inf,0,sub-013,28227,NA,sub-013,21,sub-21,0.3,7,0.3258,179.685
29227,15,thanks,TRUE,4733,7.217000000000013,study,27,198.693,0,1,0.3,0.3,Inf,0,sub-013,28227,NA,sub-013,21,sub-21,0.3,5,0.3008,198.693
29227,14,voice,TRUE,11830,14.561999999999983,study,28,213.255,0,1,0.3,0.3,Inf,0,sub-013,28227,NA,sub-013,21,sub-21,0.3,5,0.3391,213.255
29227,23,pain,TRUE,5484,7.200000000000017,study,35,256.708,0,1,0.3,0.3,Inf,0,sub-013,28227,NA,sub-013,21,sub-21,0.3,3,0.2008,256.708
29227,4,pants,TRUE,12422,14.527999999999963,study,36,271.236,0,1,0.3,0.3,Inf,0,sub-013,28227,NA,sub-013,21,sub-21,0.3,3,0.2687,271.236
29227,21,color,TRUE,5596,22.063999999999965,study,45,336.388,0,1,0.3,0.3,Inf,0,sub-013,28227,NA,sub-013,21,sub-21,0.3,2,0.2504,336.388
29227,16,work,TRUE,9670,11.009000000000016,study,53,371.269,0,1,0.3,0.3,Inf,0,sub-013,28227,NA,sub-013,21,sub-21,0.3,3,0.3,371.269
29227,11,chicken,TRUE,3086,6.11099999999999,study,54,377.38,0,1,0.3,0.3,Inf,0,sub-013,28227,NA,sub-013,21,sub-21,0.3,2,0.2504,377.38
29227,6,monkey,TRUE,9239,13.488,study,59,411.924,0,1,0.3,0.3,Inf,0,sub-013,28227,NA,sub-013,21,sub-21,0.3,3,0.3,411.924
29227,10,cloud,TRUE,2375,4.992000000000019,study,62,428.98,0,1,0.3,0.3,Inf,0,sub-013,28227,NA,sub-013,21,sub-21,0.3,3,0.3164,428.98
29227,22,fruit,TRUE,5761,16.144000000000005,study,85,590.948,0,1,0.3,0.3,Inf,0,sub-013,28227,NA,sub-013,21,sub-21,0.3,2,0.2504,590.948
29227,2,pombe,FALSE,2943,8.272000000000048,study,86,599.22,5,1,0.3,0.3,Inf,0,sub-013,28227,NA,sub-013,21,sub-21,0.3,2,0.2504,599.22
29227,25,language,TRUE,2299,4.927000000000021,study,95,655.635,0,1,0.3,0.3,Inf,0,sub-013,28227,NA,sub-013,21,sub-21,0.3,2,0.2504,655.635
29227,13,song,TRUE,2521,7.455999999999904,study,103,688.036,0,1,0.3,0.3,Inf,0,sub-013,28227,NA,sub-013,21,sub-21,0.3,1,0.3,688.036
29227,7,eye,TRUE,4329,12.064000000000078,study,104,700.1,0,1,0.3,0.3,Inf,0,sub-013,28227,NA,sub-013,21,sub-21,0.3,1,0.3,700.1
29230,21,color,TRUE,6951,8.478,study,1,8.478,0,1,0.3,0.3,Inf,0,sub-016,28230,NA,sub-016,22,sub-22,0.3,8,0.2035,8.478
29230,4,pants,TRUE,1440,5.103,study,3,15.836,0,1,0.3,0.3,Inf,0,sub-016,28230,NA,sub-016,22,sub-22,0.3,5,0.1016,15.836
29230,16,work,TRUE,1194,2.9979999999999976,study,5,21.011,0,1,0.3,0.3,Inf,0,sub-016,28230,NA,sub-016,22,sub-22,0.3,11,0.2344,21.011
29230,3,fish,TRUE,1111,3.0330000000000013,study,6,24.044,0,1,0.3,0.3,Inf,0,sub-016,28230,NA,sub-016,22,sub-22,0.3,6,0.1512,24.044
29230,2,beer,TRUE,1371,3.599999999999998,study,9,31.676,0,1,0.3,0.3,Inf,0,sub-016,28230,NA,sub-016,22,sub-22,0.3,5,0.1016,31.676
29230,1,enemy,TRUE,1495,4.146000000000004,study,10,35.822,0,1,0.3,0.3,Inf,0,sub-016,28230,NA,sub-016,22,sub-22,0.3,6,0.1637,35.822
29230,23,pain,TRUE,1218,2.975999999999999,study,13,44.38,0,1,0.3,0.3,Inf,0,sub-016,28230,NA,sub-016,22,sub-22,0.3,6,0.1512,44.38
29230,13,song,TRUE,1966,3.838999999999998,study,14,48.219,0,1,0.3,0.3,Inf,0,sub-016,28230,NA,sub-016,22,sub-22,0.3,21,0.3773,48.219
29230,12,book,TRUE,1178,2.5279999999999987,study,17,54.86,0,1,0.3,0.3,Inf,0,sub-016,28230,NA,sub-016,22,sub-22,0.3,14,0.302,54.86
29230,8,music,TRUE,1147,3.2040000000000006,study,18,58.064,0,1,0.3,0.3,Inf,0,sub-016,28230,NA,sub-016,22,sub-22,0.3,10,0.209,58.064
29230,6,monkey,TRUE,894,2.9439999999999884,study,25,75.356,0,1,0.3,0.3,Inf,0,sub-016,28230,NA,sub-016,22,sub-22,0.3,7,0.1797,75.356
29230,14,voice,TRUE,1078,2.6710000000000065,study,26,78.027,0,1,0.3,0.3,Inf,0,sub-016,28230,NA,sub-016,22,sub-22,0.3,15,0.3086,78.027
29230,18,friend,TRUE,1105,2.7210000000000036,study,31,90.541,0,1,0.3,0.3,Inf,0,sub-016,28230,NA,sub-016,22,sub-22,0.3,14,0.3051,90.541
29230,11,chicken,TRUE,877,2.4950000000000045,study,32,93.036,0,1,0.3,0.3,Inf,0,sub-016,28230,NA,sub-016,22,sub-22,0.3,5,0.1016,93.036
29230,15,thanks,TRUE,928,2.497000000000014,study,41,135.548,0,1,0.3,0.3,Inf,0,sub-016,28230,NA,sub-016,22,sub-22,0.3,5,0.1188,135.548
29230,10,cloud,TRUE,1491,6.256,study,47,172.3,0,1,0.3,0.3,Inf,0,sub-016,28230,NA,sub-016,22,sub-22,0.3,5,0.175,172.3
29230,17,holidays,TRUE,1984,6.3519999999999754,study,48,178.652,0,1,0.3,0.3,Inf,0,sub-016,28230,NA,sub-016,22,sub-22,0.3,5,0.1016,178.652
29230,19,wheel,TRUE,986,2.2889999999999873,study,56,216.988,0,1,0.3,0.3,Inf,0,sub-016,28230,NA,sub-016,22,sub-22,0.3,5,0.1016,216.988
29230,7,eye,TRUE,864,2.094999999999999,study,59,223.915,0,1,0.3,0.3,Inf,0,sub-016,28230,NA,sub-016,22,sub-22,0.3,5,0.1016,223.915
29230,9,police,TRUE,1192,4.960000000000008,study,60,228.875,0,1,0.3,0.3,Inf,0,sub-016,28230,NA,sub-016,22,sub-22,0.3,9,0.2289,228.875
29230,25,language,TRUE,1088,3.4879999999999995,study,66,247.18,0,1,0.3,0.3,Inf,0,sub-016,28230,NA,sub-016,22,sub-22,0.3,4,0.1512,247.18
29230,24,shop,TRUE,860,3.5039999999999907,study,67,250.684,0,1,0.3,0.3,Inf,0,sub-016,28230,NA,sub-016,22,sub-22,0.3,9,0.2086,250.684
29230,5,office,TRUE,1028,2.4809999999999945,study,70,257.484,0,1,0.3,0.3,Inf,0,sub-016,28230,NA,sub-016,22,sub-22,0.3,5,0.1516,257.484
29230,22,fruit,TRUE,1523,3.040999999999997,study,71,260.525,0,1,0.3,0.3,Inf,0,sub-016,28230,NA,sub-016,22,sub-22,0.3,5,0.1016,260.525
29230,20,bike,TRUE,1018,2.2409999999999854,study,80,288.813,0,1,0.3,0.3,Inf,0,sub-016,28230,NA,sub-016,22,sub-22,0.3,6,0.1621,288.813
29245,25,language,TRUE,5743,8.791,study,1,8.791,0,1,0.3,0.3,Inf,0,sub-027,28245,NA,sub-027,23,sub-23,0.3,3,0.2008,8.791
29245,16,work,TRUE,1677,7.647,study,3,21.396,0,1,0.3,0.3,Inf,0,sub-027,28245,NA,sub-027,23,sub-23,0.3,5,0.3211,21.396
29245,4,pants,TRUE,3074,13.666000000000004,study,5,38.279,0,1,0.3,0.3,Inf,0,sub-027,28245,NA,sub-027,23,sub-23,0.3,3,0.2008,38.279
29245,13,song,TRUE,2878,5.821999999999996,study,6,44.101,0,1,0.3,0.3,Inf,0,sub-027,28245,NA,sub-027,23,sub-23,0.3,4,0.2504,44.101
29245,17,holidays,TRUE,3007,5.439999999999998,study,9,55.573,0,1,0.3,0.3,Inf,0,sub-027,28245,NA,sub-027,23,sub-23,0.3,7,0.3492,55.573
29245,12,book,TRUE,3019,5.439999999999998,study,10,61.013,0,1,0.3,0.3,Inf,0,sub-027,28245,NA,sub-027,23,sub-23,0.3,5,0.3312,61.013
29245,10,cloud,TRUE,3378,6.400999999999996,study,15,80.934,0,1,0.3,0.3,Inf,0,sub-027,28245,NA,sub-027,23,sub-23,0.3,3,0.2656,80.934
29245,8,music,TRUE,1668,5.873000000000005,study,16,86.807,0,1,0.3,0.3,Inf,0,sub-027,28245,NA,sub-027,23,sub-23,0.3,4,0.3004,86.807
29245,6,monkey,TRUE,2502,6.141999999999996,study,21,113.908,0,1,0.3,0.3,Inf,0,sub-027,28245,NA,sub-027,23,sub-23,0.3,4,0.2504,113.908
29245,22,fruit,TRUE,2184,5.326999999999998,study,29,183.716,0,1,0.3,0.3,Inf,0,sub-027,28245,NA,sub-027,23,sub-23,0.3,3,0.225,183.716
29245,15,shukuru,FALSE,3698,6.608000000000004,study,30,190.324,6,1,0.3,0.3,Inf,0,sub-027,28245,NA,sub-027,23,sub-23,0.3,4,0.3246,190.324
29245,14,sauti,FALSE,3194,6.804000000000002,study,35,234.552,5,1,0.3,0.3,Inf,0,sub-027,28245,NA,sub-027,23,sub-23,0.3,3,0.2484,234.552
29245,9,police,TRUE,2829,12.813000000000017,study,36,247.365,0,1,0.3,0.3,Inf,0,sub-027,28245,NA,sub-027,23,sub-23,0.3,3,0.2758,247.365
29245,20,bike,TRUE,2873,4.560999999999979,study,43,290.292,0,1,0.3,0.3,Inf,0,sub-027,28245,NA,sub-027,23,sub-23,0.3,3,0.2008,290.292
29245,1,adui,FALSE,2190,4.817000000000007,study,44,295.109,5,1,0.3,0.3,Inf,0,sub-027,28245,NA,sub-027,23,sub-23,0.3,3,0.3,295.109
29245,24,shop,TRUE,1836,4.687999999999988,study,49,316.084,0,1,0.3,0.3,Inf,0,sub-027,28245,NA,sub-027,23,sub-23,0.3,4,0.3363,316.084
29245,19,wheel,TRUE,1891,4.288000000000011,study,50,320.372,0,1,0.3,0.3,Inf,0,sub-027,28245,NA,sub-027,23,sub-23,0.3,3,0.2008,320.372
29245,11,chicken,TRUE,1750,7.982000000000028,study,54,338.548,0,1,0.3,0.3,Inf,0,sub-027,28245,NA,sub-027,23,sub-23,0.3,2,0.2504,338.548
29245,21,rangi,FALSE,1060,4.656000000000006,study,55,343.204,5,1,0.3,0.3,Inf,0,sub-027,28245,NA,sub-027,23,sub-23,0.3,3,0.2063,343.204
29245,3,fish,TRUE,2915,4.847999999999956,study,60,366.484,0,1,0.3,0.3,Inf,0,sub-027,28245,NA,sub-027,23,sub-23,0.3,2,0.2504,366.484
29245,2,beer,TRUE,1902,7.857000000000028,study,61,374.341,0,1,0.3,0.3,Inf,0,sub-027,28245,NA,sub-027,23,sub-23,0.3,4,0.3262,374.341
29245,18,friend,TRUE,2841,7.310999999999979,study,75,472.116,0,1,0.3,0.3,Inf,0,sub-027,28245,NA,sub-027,23,sub-23,0.3,2,0.2504,472.116
29245,5,office,TRUE,3229,6.444000000000074,study,86,608.244,0,1,0.3,0.3,Inf,0,sub-027,28245,NA,sub-027,23,sub-23,0.3,2,0.2504,608.244
29245,7,eye,TRUE,4311,9.696000000000026,study,87,617.94,0,1,0.3,0.3,Inf,0,sub-027,28245,NA,sub-027,23,sub-23,0.3,2,0.2504,617.94
29245,23,pain,TRUE,2933,5.616999999999962,study,92,643.717,0,1,0.3,0.3,Inf,0,sub-027,28245,NA,sub-027,23,sub-23,0.3,2,0.2504,643.717
29280,6,monkey,TRUE,5581,9.502,study,1,9.502,0,1,0.3,0.3,Inf,0,sub-032,28280,NA,sub-032,24,sub-24,0.3,4,0.2504,9.502
29280,7,eye,TRUE,4954,9.407000000000002,study,3,24.045,0,1,0.3,0.3,Inf,0,sub-032,28280,NA,sub-032,24,sub-24,0.3,9,0.4281,24.045
29280,18,friend,TRUE,2979,9.601000000000004,study,5,37.005,0,1,0.3,0.3,Inf,0,sub-032,28280,NA,sub-032,24,sub-24,0.3,3,0.2008,37.005
29280,1,enemy,TRUE,5171,10.64,study,6,47.645,0,1,0.3,0.3,Inf,0,sub-032,28280,NA,sub-032,24,sub-24,0.3,4,0.2895,47.645
29280,16,work,TRUE,2565,10.389000000000005,study,10,74.081,0,1,0.3,0.3,Inf,0,sub-032,28280,NA,sub-032,24,sub-24,0.3,11,0.3992,74.081
29280,21,color,TRUE,5363,10.530999999999992,study,13,100.975,0,1,0.3,0.3,Inf,0,sub-032,28280,NA,sub-032,24,sub-24,0.3,7,0.3805,100.975
29280,25,lugha,FALSE,4435,16.747,study,18,139.66,5,1,0.3,0.3,Inf,0,sub-032,28280,NA,sub-032,24,sub-24,0.3,4,0.3059,139.66
29280,5,afisi,FALSE,3918,8.943000000000012,study,22,177.163,4,1,0.3,0.3,Inf,0,sub-032,28280,NA,sub-032,24,sub-24,0.3,7,0.3578,177.163
29280,12,book,TRUE,5065,14.335999999999984,study,23,191.499,0,1,0.3,0.3,Inf,0,sub-032,28280,NA,sub-032,24,sub-24,0.3,10,0.4699,191.499
29280,4,pants,TRUE,11454,14.432000000000016,study,34,295.596,0,1,0.3,0.3,Inf,0,sub-032,28280,NA,sub-032,24,sub-24,0.3,2,0.2504,295.596
29280,19,wheel,TRUE,3777,9.134000000000016,study,55,475.788,0,1,0.3,0.3,Inf,0,sub-032,28280,NA,sub-032,24,sub-24,0.3,3,0.3,475.788
29280,17,holidays,TRUE,10893,19.34499999999997,study,62,523.26,0,1,0.3,0.3,Inf,0,sub-032,28280,NA,sub-032,24,sub-24,0.3,2,0.2848,523.26
29280,8,music,TRUE,4634,6.9109999999999445,study,69,564.443,0,1,0.3,0.3,Inf,0,sub-032,28280,NA,sub-032,24,sub-24,0.3,2,0.2504,564.443
29280,10,cloud,TRUE,6108,11.279999999999973,study,70,575.723,0,1,0.3,0.3,Inf,0,sub-032,28280,NA,sub-032,24,sub-24,0.3,2,0.2504,575.723
29280,14,voice,TRUE,4605,10.815999999999915,study,77,609.627,0,1,0.3,0.3,Inf,0,sub-032,28280,NA,sub-032,24,sub-24,0.3,2,0.2504,609.627
29280,20,bike,TRUE,3823,6.3670000000000755,study,80,628.315,0,1,0.3,0.3,Inf,0,sub-032,28280,NA,sub-032,24,sub-24,0.3,2,0.3246,628.315
29280,9,police,TRUE,3890,8.27299999999991,study,86,659.036,0,1,0.3,0.3,Inf,0,sub-032,28280,NA,sub-032,24,sub-24,0.3,2,0.2504,659.036
29280,23,pain,FALSE,3769,9.2960000000000491,study,90,683.451,1,1,0.3,0.3,Inf,0,sub-032,28280,NA,sub-032,24,sub-24,0.3,1,0.3,683.451
29280,11,chicken,TRUE,2105,4.493000000000052,study,95,706.075,0,1,0.3,0.3,Inf,0,sub-032,28280,NA,sub-032,24,sub-24,0.3,1,0.3,706.075
29280,3,fish,TRUE,2252,5.072999999999979,study,96,711.148,0,1,0.3,0.3,Inf,0,sub-032,28280,NA,sub-032,24,sub-24,0.3,1,0.3,711.148
29281,25,language,TRUE,5135,8.408,study,1,8.408,0,1,0.3,0.3,Inf,0,sub-033,28281,NA,sub-033,18,sub-18,0.3,4,0.2504,8.408
29281,1,enemy,TRUE,5296,9.967999999999998,study,3,23.493,0,1,0.3,0.3,Inf,0,sub-033,28281,NA,sub-033,18,sub-18,0.3,4,0.2504,23.493
29281,20,bike,TRUE,12272,14.465000000000003,study,5,42.965,0,1,0.3,0.3,Inf,0,sub-033,28281,NA,sub-033,18,sub-18,0.3,3,0.2008,42.965
29281,19,wheel,TRUE,8643,10.959999999999994,study,6,53.925,0,1,0.3,0.3,Inf,0,sub-033,28281,NA,sub-033,18,sub-18,0.3,4,0.2504,53.925
29281,22,fruit,TRUE,2199,5.474000000000004,study,10,73.542,0,1,0.3,0.3,Inf,0,sub-033,28281,NA,sub-033,18,sub-18,0.3,5,0.325,73.542
29281,23,pain,TRUE,3677,7.872,study,13,88.66,0,1,0.3,0.3,Inf,0,sub-033,28281,NA,sub-033,18,sub-18,0.3,3,0.2008,88.66
29281,11,chicken,TRUE,2551,4.847999999999999,study,14,93.508,0,1,0.3,0.3,Inf,0,sub-033,28281,NA,sub-033,18,sub-18,0.3,3,0.2008,93.508
29281,5,office,TRUE,2300,4.672000000000011,study,17,105.364,0,1,0.3,0.3,Inf,0,sub-033,28281,NA,sub-033,18,sub-18,0.3,3,0.2008,105.364
29281,4,pants,TRUE,6422,9.888999999999996,study,21,127.189,0,1,0.3,0.3,Inf,0,sub-033,28281,NA,sub-033,18,sub-18,0.3,6,0.2754,127.189
29281,8,music,TRUE,1932,4.063999999999993,study,24,137.844,0,1,0.3,0.3,Inf,0,sub-033,28281,NA,sub-033,18,sub-18,0.3,6,0.2996,137.844
29281,24,shop,TRUE,1588,4.099000000000018,study,25,141.943,0,1,0.3,0.3,Inf,0,sub-033,28281,NA,sub-033,18,sub-18,0.3,8,0.3504,141.943
29281,18,friend,TRUE,3270,5.361000000000018,study,31,166.372,0,1,0.3,0.3,Inf,0,sub-033,28281,NA,sub-033,18,sub-18,0.3,4,0.2504,166.372
29281,17,holidays,TRUE,4382,8.079999999999984,study,32,174.452,0,1,0.3,0.3,Inf,0,sub-033,28281,NA,sub-033,18,sub-18,0.3,7,0.3516,174.452
29281,16,work,TRUE,3938,6.944999999999993,study,39,235.172,0,1,0.3,0.3,Inf,0,sub-033,28281,NA,sub-033,18,sub-18,0.3,5,0.3367,235.172
29281,10,cloud,TRUE,5418,7.728000000000009,study,45,271.204,0,1,0.3,0.3,Inf,0,sub-033,28281,NA,sub-033,18,sub-18,0.3,4,0.2504,271.204
29281,15,thanks,TRUE,2480,5.312000000000012,study,46,276.516,0,1,0.3,0.3,Inf,0,sub-033,28281,NA,sub-033,18,sub-18,0.3,5,0.3367,276.516
29281,21,color,TRUE,2155,4.367999999999995,study,54,329.7,0,1,0.3,0.3,Inf,0,sub-033,28281,NA,sub-033,18,sub-18,0.3,4,0.2254,329.7
29281,13,song,TRUE,4982,7.502999999999986,study,58,348.228,0,1,0.3,0.3,Inf,0,sub-033,28281,NA,sub-033,18,sub-18,0.3,4,0.2996,348.228
29281,3,fish,TRUE,2086,8.01600000000002,study,59,356.244,0,1,0.3,0.3,Inf,0,sub-033,28281,NA,sub-033,18,sub-18,0.3,5,0.3531,356.244
29281,12,book,TRUE,5224,10,study,67,404.404,0,1,0.3,0.3,Inf,0,sub-033,28281,NA,sub-033,18,sub-18,0.3,9,0.4734,404.404
29281,9,police,TRUE,4561,7.151999999999987,study,72,427.556,0,1,0.3,0.3,Inf,0,sub-033,28281,NA,sub-033,18,sub-18,0.3,3,0.243,427.556
29281,2,beer,TRUE,4216,5.951999999999998,study,73,433.508,0,1,0.3,0.3,Inf,0,sub-033,28281,NA,sub-033,18,sub-18,0.3,4,0.2996,433.508
29281,6,monkey,TRUE,3474,5.984000000000037,study,89,528.772,0,1,0.3,0.3,Inf,0,sub-033,28281,NA,sub-033,18,sub-18,0.3,4,0.2504,528.772
29281,7,eye,TRUE,4555,6.673000000000002,study,90,535.445,0,1,0.3,0.3,Inf,0,sub-033,28281,NA,sub-033,18,sub-18,0.3,2,0.2504,535.445
29281,14,voice,TRUE,2280,5.312000000000012,study,94,550.836,0,1,0.3,0.3,Inf,0,sub-033,28281,NA,sub-033,18,sub-18,0.3,8,0.377,550.836
29303,15,shukuru,FALSE,4442,6.076,study,1,6.076,6,1,0.3,0.3,Inf,0,sub-037,28303,NA,sub-037,25,sub-25,0.3,5,0.2008,6.076
29303,3,fish,TRUE,1763,2.928000000000001,study,3,15.07,0,1,0.3,0.3,Inf,0,sub-037,28303,NA,sub-037,25,sub-25,0.3,7,0.2992,15.07
29303,5,office,TRUE,2291,3.808,study,5,22.11,0,1,0.3,0.3,Inf,0,sub-037,28303,NA,sub-037,25,sub-25,0.3,5,0.2375,22.11
29303,11,chicken,TRUE,1698,3.039999999999999,study,6,25.15,0,1,0.3,0.3,Inf,0,sub-037,28303,NA,sub-037,25,sub-25,0.3,3,0.2008,25.15
29303,19,wheel,TRUE,1762,2.9919999999999973,study,9,36.062,0,1,0.3,0.3,Inf,0,sub-037,28303,NA,sub-037,25,sub-25,0.3,6,0.284,36.062
29303,20,bike,TRUE,1441,3.0560000000000045,study,10,39.118,0,1,0.3,0.3,Inf,0,sub-037,28303,NA,sub-037,25,sub-25,0.3,3,0.2008,39.118
29303,17,holidays,TRUE,1379,3.022999999999996,study,13,47.501,0,1,0.3,0.3,Inf,0,sub-037,28303,NA,sub-037,25,sub-25,0.3,17,0.4602,47.501
29303,25,language,TRUE,1122,2.544000000000004,study,14,50.045,0,1,0.3,0.3,Inf,0,sub-037,28303,NA,sub-037,25,sub-25,0.3,4,0.2066,50.045
29303,12,book,TRUE,1410,2.736000000000004,study,27,123.628,0,1,0.3,0.3,Inf,0,sub-037,28303,NA,sub-037,25,sub-25,0.3,10,0.3941,123.628
29303,6,monkey,TRUE,1123,2.5120000000000005,study,31,136.621,0,1,0.3,0.3,Inf,0,sub-037,28303,NA,sub-037,25,sub-25,0.3,12,0.391,136.621
29303,21,color,TRUE,1123,2.799999999999983,study,32,139.421,0,1,0.3,0.3,Inf,0,sub-037,28303,NA,sub-037,25,sub-25,0.3,4,0.1973,139.421
29303,2,beer,TRUE,1660,6.287000000000006,study,36,168.364,0,1,0.3,0.3,Inf,0,sub-037,28303,NA,sub-037,25,sub-25,0.3,3,0.2008,168.364
29303,13,song,TRUE,979,1.9840000000000089,study,37,170.348,0,1,0.3,0.3,Inf,0,sub-037,28303,NA,sub-037,25,sub-25,0.3,7,0.2992,170.348
29303,9,police,TRUE,1218,4.335000000000008,study,50,254.747,0,1,0.3,0.3,Inf,0,sub-037,28303,NA,sub-037,25,sub-25,0.3,3,0.2008,254.747
29303,1,enemy,TRUE,1842,3.536000000000002,study,51,258.283,0,1,0.3,0.3,Inf,0,sub-037,28303,NA,sub-037,25,sub-25,0.3,4,0.2504,258.283
29303,18,friend,TRUE,1187,2.976999999999975,study,55,269.436,0,1,0.3,0.3,Inf,0,sub-037,28303,NA,sub-037,25,sub-25,0.3,3,0.2008,269.436
29303,16,work,TRUE,1471,2.944000000000017,study,70,343.898,0,1,0.3,0.3,Inf,0,sub-037,28303,NA,sub-037,25,sub-25,0.3,3,0.2008,343.898
29303,4,pants,TRUE,3011,5.456999999999994,study,71,349.355,0,1,0.3,0.3,Inf,0,sub-037,28303,NA,sub-037,25,sub-25,0.3,3,0.2008,349.355
29303,23,pain,TRUE,1203,3.9189999999999823,study,86,425.929,0,1,0.3,0.3,Inf,0,sub-037,28303,NA,sub-037,25,sub-25,0.3,3,0.2008,425.929
29303,14,voice,TRUE,1331,3.216000000000008,study,89,434.906,0,1,0.3,0.3,Inf,0,sub-037,28303,NA,sub-037,25,sub-25,0.3,3,0.2008,434.906
29303,7,eye,TRUE,1219,2.766999999999996,study,90,437.673,0,1,0.3,0.3,Inf,0,sub-037,28303,NA,sub-037,25,sub-25,0.3,3,0.2008,437.673
29303,8,music,TRUE,1493,3.024000000000001,study,93,446.762,0,1,0.3,0.3,Inf,0,sub-037,28303,NA,sub-037,25,sub-25,0.3,3,0.2008,446.762
29303,10,cloud,TRUE,2868,4.350999999999999,study,94,451.113,0,1,0.3,0.3,Inf,0,sub-037,28303,NA,sub-037,25,sub-25,0.3,4,0.2996,451.113
29303,24,shop,TRUE,1045,2.416999999999973,study,103,491.849,0,1,0.3,0.3,Inf,0,sub-037,28303,NA,sub-037,25,sub-25,0.3,7,0.3492,491.849
29303,22,fruit,TRUE,1956,4.302999999999997,study,104,496.152,0,1,0.3,0.3,Inf,0,sub-037,28303,NA,sub-037,25,sub-25,0.3,6,0.3457,496.152
29305,13,song,TRUE,3462,5.949,study,1,5.949,0,1,0.3,0.3,Inf,0,sub-038,28305,NA,sub-038,26,sub-26,0.3,7,0.2828,5.949
29305,7,eye,TRUE,2196,3.68,study,3,13.115,0,1,0.3,0.3,Inf,0,sub-038,28305,NA,sub-038,26,sub-26,0.3,4,0.1512,13.115
29305,11,chicken,TRUE,1640,3.935999999999998,study,5,19.74,0,1,0.3,0.3,Inf,0,sub-038,28305,NA,sub-038,26,sub-26,0.3,4,0.1512,19.74
29305,25,language,TRUE,2204,7.312000000000001,study,6,27.052,0,1,0.3,0.3,Inf,0,sub-038,28305,NA,sub-038,26,sub-26,0.3,4,0.1512,27.052
29305,14,voice,TRUE,2860,6.015000000000001,study,9,40.731,0,1,0.3,0.3,Inf,0,sub-038,28305,NA,sub-038,26,sub-26,0.3,5,0.25,40.731
29305,2,beer,TRUE,2102,5.631999999999998,study,10,46.363,0,1,0.3,0.3,Inf,0,sub-038,28305,NA,sub-038,26,sub-26,0.3,3,0.2008,46.363
29305,5,office,TRUE,3095,5.647999999999996,study,20,111.307,0,1,0.3,0.3,Inf,0,sub-038,28305,NA,sub-038,26,sub-26,0.3,7,0.3,111.307
29305,1,enemy,TRUE,1591,4.051000000000002,study,21,115.358,0,1,0.3,0.3,Inf,0,sub-038,28305,NA,sub-038,26,sub-26,0.3,5,0.2937,115.358
29305,12,book,TRUE,3688,5.231999999999999,study,24,127.707,0,1,0.3,0.3,Inf,0,sub-038,28305,NA,sub-038,26,sub-26,0.3,9,0.3547,127.707
29305,4,pants,TRUE,3388,6.7050000000000125,study,25,134.412,0,1,0.3,0.3,Inf,0,sub-038,28305,NA,sub-038,26,sub-26,0.3,4,0.2176,134.412
29305,18,friend,TRUE,1947,7.454999999999984,study,28,153.195,0,1,0.3,0.3,Inf,0,sub-038,28305,NA,sub-038,26,sub-26,0.3,3,0.2008,153.195
29305,19,wheel,TRUE,2666,6.992000000000019,study,29,160.187,0,1,0.3,0.3,Inf,0,sub-038,28305,NA,sub-038,26,sub-26,0.3,7,0.2734,160.187
29305,6,monkey,TRUE,3602,8.159999999999997,study,34,186.619,0,1,0.3,0.3,Inf,0,sub-038,28305,NA,sub-038,26,sub-26,0.3,5,0.2492,186.619
29305,22,fruit,TRUE,2941,8.40100000000001,study,42,244.252,0,1,0.3,0.3,Inf,0,sub-038,28305,NA,sub-038,26,sub-26,0.3,3,0.2008,244.252
29305,20,bike,TRUE,3814,5.312000000000012,study,45,258.187,0,1,0.3,0.3,Inf,0,sub-038,28305,NA,sub-038,26,sub-26,0.3,3,0.2008,258.187
29305,21,color,TRUE,1758,5.728999999999985,study,46,263.916,0,1,0.3,0.3,Inf,0,sub-038,28305,NA,sub-038,26,sub-26,0.3,4,0.2254,263.916
29305,8,music,TRUE,2559,6.833000000000027,study,50,285.036,0,1,0.3,0.3,Inf,0,sub-038,28305,NA,sub-038,26,sub-26,0.3,5,0.25,285.036
29305,3,fish,TRUE,2399,5.103000000000009,study,51,290.139,0,1,0.3,0.3,Inf,0,sub-038,28305,NA,sub-038,26,sub-26,0.3,4,0.2012,290.139
29305,17,holidays,TRUE,3919,10.75200000000001,study,61,344.507,0,1,0.3,0.3,Inf,0,sub-038,28305,NA,sub-038,26,sub-26,0.3,8,0.3121,344.507
29305,10,cloud,TRUE,2650,7.713000000000022,study,64,360.572,0,1,0.3,0.3,Inf,0,sub-038,28305,NA,sub-038,26,sub-26,0.3,8,0.3613,360.572
29305,24,shop,TRUE,1740,7.842000000000041,study,69,380.732,0,1,0.3,0.3,Inf,0,sub-038,28305,NA,sub-038,26,sub-26,0.3,3,0.2008,380.732
29305,15,thanks,TRUE,3779,5.614999999999952,study,70,386.347,0,1,0.3,0.3,Inf,0,sub-038,28305,NA,sub-038,26,sub-26,0.3,5,0.3,386.347
29305,9,police,TRUE,2297,6.079999999999984,study,76,416.315,0,1,0.3,0.3,Inf,0,sub-038,28305,NA,sub-038,26,sub-26,0.3,4,0.2262,416.315
29305,23,pain,TRUE,3345,13.760000000000048,study,93,518.267,0,1,0.3,0.3,Inf,0,sub-038,28305,NA,sub-038,26,sub-26,0.3,3,0.2008,518.267
29305,16,work,TRUE,2218,7.15199999999993,study,94,525.419,0,1,0.3,0.3,Inf,0,sub-038,28305,NA,sub-038,26,sub-26,0.3,3,0.2063,525.419
29306,2,beer,TRUE,3826,4.551,study,1,4.551,0,1,0.3,0.3,Inf,0,sub-039,28306,NA,sub-039,27,sub-27,0.3,4,0.1512,4.551
29306,8,music,TRUE,2047,5.264,study,3,13.134,0,1,0.3,0.3,Inf,0,sub-039,28306,NA,sub-039,27,sub-27,0.3,5,0.1773,13.134
29306,19,wheel,TRUE,2320,4.7120000000000015,study,5,20.702,0,1,0.3,0.3,Inf,0,sub-039,28306,NA,sub-039,27,sub-27,0.3,6,0.1785,20.702
29306,7,eye,TRUE,1962,4.631999999999998,study,6,25.334,0,1,0.3,0.3,Inf,0,sub-039,28306,NA,sub-039,27,sub-27,0.3,4,0.1512,25.334
29306,1,enemy,TRUE,2342,5.207999999999998,study,9,37.486,0,1,0.3,0.3,Inf,0,sub-039,28306,NA,sub-039,27,sub-27,0.3,7,0.2336,37.486
29306,15,thanks,TRUE,1529,3.599000000000004,study,10,41.085,0,1,0.3,0.3,Inf,0,sub-039,28306,NA,sub-039,27,sub-27,0.3,5,0.1516,41.085
29306,4,pants,TRUE,4290,6.136000000000003,study,14,57.151,0,1,0.3,0.3,Inf,0,sub-039,28306,NA,sub-039,27,sub-27,0.3,6,0.1512,57.151
29306,11,chicken,TRUE,1688,4.376999999999995,study,17,69.63,0,1,0.3,0.3,Inf,0,sub-039,28306,NA,sub-039,27,sub-27,0.3,4,0.1512,69.63
29306,10,cloud,TRUE,1632,4.6710000000000065,study,18,74.301,0,1,0.3,0.3,Inf,0,sub-039,28306,NA,sub-039,27,sub-27,0.3,5,0.182,74.301
29306,23,pain,TRUE,3025,4.911000000000001,study,23,91.349,0,1,0.3,0.3,Inf,0,sub-039,28306,NA,sub-039,27,sub-27,0.3,4,0.1512,91.349
29306,13,song,TRUE,2170,3.864000000000004,study,27,106.614,0,1,0.3,0.3,Inf,0,sub-039,28306,NA,sub-039,27,sub-27,0.3,6,0.2129,106.614
29306,14,voice,TRUE,2960,5.950999999999993,study,28,112.565,0,1,0.3,0.3,Inf,0,sub-039,28306,NA,sub-039,27,sub-27,0.3,4,0.1512,112.565
29306,20,bike,TRUE,3642,5.831999999999994,study,34,133.589,0,1,0.3,0.3,Inf,0,sub-039,28306,NA,sub-039,27,sub-27,0.3,5,0.1688,133.589
29306,6,monkey,TRUE,2993,4.888000000000005,study,35,138.477,0,1,0.3,0.3,Inf,0,sub-039,28306,NA,sub-039,27,sub-27,0.3,5,0.1625,138.477
29306,25,language,TRUE,3382,6.2309999999999945,study,39,155.069,0,1,0.3,0.3,Inf,0,sub-039,28306,NA,sub-039,27,sub-27,0.3,4,0.1512,155.069
29306,21,color,TRUE,1689,4.736000000000018,study,40,159.805,0,1,0.3,0.3,Inf,0,sub-039,28306,NA,sub-039,27,sub-27,0.3,8,0.2535,159.805
29306,5,office,TRUE,2355,4.567000000000007,study,46,179.485,0,1,0.3,0.3,Inf,0,sub-039,28306,NA,sub-039,27,sub-27,0.3,7,0.1969,179.485
29306,9,police,TRUE,2849,5.080999999999989,study,47,184.566,0,1,0.3,0.3,Inf,0,sub-039,28306,NA,sub-039,27,sub-27,0.3,32,0.5629,184.566
29306,18,friend,TRUE,2459,4.584000000000003,study,52,203.974,0,1,0.3,0.3,Inf,0,sub-039,28306,NA,sub-039,27,sub-27,0.3,4,0.1512,203.974
29306,17,holidays,TRUE,1737,5.544000000000011,study,53,209.518,0,1,0.3,0.3,Inf,0,sub-039,28306,NA,sub-039,27,sub-27,0.3,9,0.2734,209.518
29306,12,book,TRUE,2106,4.623999999999995,study,58,232.31,0,1,0.3,0.3,Inf,0,sub-039,28306,NA,sub-039,27,sub-27,0.3,10,0.2785,232.31
29306,24,shop,TRUE,3660,5.865000000000009,study,62,250.678,0,1,0.3,0.3,Inf,0,sub-039,28306,NA,sub-039,27,sub-27,0.3,6,0.152,250.678
29306,16,work,TRUE,1795,4.336000000000013,study,63,255.014,0,1,0.3,0.3,Inf,0,sub-039,28306,NA,sub-039,27,sub-27,0.3,12,0.284,255.014
29306,22,fruit,TRUE,2956,6.6720000000000255,study,69,278.125,0,1,0.3,0.3,Inf,0,sub-039,28306,NA,sub-039,27,sub-27,0.3,5,0.1633,278.125
29306,3,fish,TRUE,2042,4,study,70,282.125,0,1,0.3,0.3,Inf,0,sub-039,28306,NA,sub-039,27,sub-27,0.3,5,0.2016,282.125
29307,2,beer,TRUE,4990,7.343,study,1,7.343,0,1,0.3,0.3,Inf,0,sub-040,28307,NA,sub-040,28,sub-28,0.3,4,0.1754,7.343
29307,8,music,TRUE,3203,5.864000000000001,study,3,17.036,0,1,0.3,0.3,Inf,0,sub-040,28307,NA,sub-040,28,sub-28,0.3,4,0.2066,17.036
29307,12,book,TRUE,5696,8.056000000000001,study,5,27.966,0,1,0.3,0.3,Inf,0,sub-040,28307,NA,sub-040,28,sub-28,0.3,10,0.3598,27.966
29307,19,wheel,TRUE,8456,10.43,study,6,38.396,0,1,0.3,0.3,Inf,0,sub-040,28307,NA,sub-040,28,sub-28,0.3,8,0.2895,38.396
29307,14,voice,TRUE,5979,7.3530000000000015,study,9,51.516,0,1,0.3,0.3,Inf,0,sub-040,28307,NA,sub-040,28,sub-28,0.3,8,0.3301,51.516
29307,1,enemy,TRUE,3839,14.535000000000004,study,10,66.051,0,1,0.3,0.3,Inf,0,sub-040,28307,NA,sub-040,28,sub-28,0.3,3,0.2008,66.051
29307,3,fish,TRUE,15361,17.287000000000006,study,15,102.388,0,1,0.3,0.3,Inf,0,sub-040,28307,NA,sub-040,28,sub-28,0.3,5,0.2922,102.388
29307,25,language,TRUE,3369,5.335000000000008,study,27,189.043,0,1,0.3,0.3,Inf,0,sub-040,28307,NA,sub-040,28,sub-28,0.3,3,0.2008,189.043
29307,10,cloud,TRUE,6674,8.384999999999991,study,28,197.428,0,1,0.3,0.3,Inf,0,sub-040,28307,NA,sub-040,28,sub-28,0.3,4,0.2504,197.428
29307,13,song,TRUE,13371,19.367999999999995,study,32,226.38,0,1,0.3,0.3,Inf,0,sub-040,28307,NA,sub-040,28,sub-28,0.3,4,0.2566,226.38
29307,16,work,TRUE,7944,11.96799999999999,study,35,245.875,0,1,0.3,0.3,Inf,0,sub-040,28307,NA,sub-040,28,sub-28,0.3,4,0.2504,245.875
29307,4,pants,TRUE,9066,11.519999999999982,study,36,257.395,0,1,0.3,0.3,Inf,0,sub-040,28307,NA,sub-040,28,sub-28,0.3,4,0.1941,257.395
29307,21,color,TRUE,23069,26.22399999999999,study,44,314.003,0,1,0.3,0.3,Inf,0,sub-040,28307,NA,sub-040,28,sub-28,0.3,4,0.2629,314.003
29307,24,shop,TRUE,17598,27.263999999999953,study,52,366.811,0,1,0.3,0.3,Inf,0,sub-040,28307,NA,sub-040,28,sub-28,0.3,4,0.2012,366.811
29307,6,monkey,TRUE,8674,13.617999999999997,study,56,389.539,0,1,0.3,0.3,Inf,0,sub-040,28307,NA,sub-040,28,sub-28,0.3,3,0.2008,389.539
29307,11,chicken,TRUE,4007,13.247000000000014,study,59,409.403,0,1,0.3,0.3,Inf,0,sub-040,28307,NA,sub-040,28,sub-28,0.3,3,0.2063,409.403
29307,22,fruit,TRUE,5258,6.8799999999999955,study,65,435.611,0,1,0.3,0.3,Inf,0,sub-040,28307,NA,sub-040,28,sub-28,0.3,3,0.2008,435.611
29307,5,office,TRUE,6932,8.711999999999989,study,66,444.323,0,1,0.3,0.3,Inf,0,sub-040,28307,NA,sub-040,28,sub-28,0.3,5,0.3,444.323
29307,9,police,TRUE,5108,11.343000000000018,study,70,465.035,0,1,0.3,0.3,Inf,0,sub-040,28307,NA,sub-040,28,sub-28,0.3,3,0.2508,465.035
29307,15,thanks,TRUE,9020,14.990000000000007,study,73,486.771,0,1,0.3,0.3,Inf,0,sub-040,28307,NA,sub-040,28,sub-28,0.3,3,0.2008,486.771
29307,18,friend,TRUE,2554,6.871999999999957,study,74,493.643,0,1,0.3,0.3,Inf,0,sub-040,28307,NA,sub-040,28,sub-28,0.3,3,0.2008,493.643
29307,7,eye,TRUE,10738,12.872999999999934,study,80,526.444,0,1,0.3,0.3,Inf,0,sub-040,28307,NA,sub-040,28,sub-28,0.3,3,0.2008,526.444
29307,20,bike,TRUE,3834,6.058000000000106,study,84,542.363,0,1,0.3,0.3,Inf,0,sub-040,28307,NA,sub-040,28,sub-28,0.3,3,0.2508,542.363
29307,17,holidays,TRUE,5936,13.703999999999953,study,85,556.067,0,1,0.3,0.3,Inf,0,sub-040,28307,NA,sub-040,28,sub-28,0.3,5,0.3281,556.067
29307,23,pain,TRUE,5842,7.390999999999963,study,97,601.139,0,1,0.3,0.3,Inf,0,sub-040,28307,NA,sub-040,28,sub-28,0.3,3,0.2008,601.139
29310,23,pain,TRUE,3319,4.936,study,1,4.936,0,1,0.3,0.3,Inf,0,sub-041,28310,NA,sub-041,29,sub-29,0.3,4,0.2504,4.936
29310,18,friend,TRUE,1591,3.845999999999999,study,3,11.043,0,1,0.3,0.3,Inf,0,sub-041,28310,NA,sub-041,29,sub-29,0.3,6,0.3309,11.043
29310,10,cloud,TRUE,1168,2.959999999999999,study,5,16.796,0,1,0.3,0.3,Inf,0,sub-041,28310,NA,sub-041,29,sub-29,0.3,8,0.3598,16.796
29310,4,pants,TRUE,1241,4.759,study,6,21.555,0,1,0.3,0.3,Inf,0,sub-041,28310,NA,sub-041,29,sub-29,0.3,6,0.341,21.555
29310,11,chicken,TRUE,1035,2.975999999999999,study,9,31.627,0,1,0.3,0.3,Inf,0,sub-041,28310,NA,sub-041,29,sub-29,0.3,5,0.3336,31.627
29310,24,shop,TRUE,1082,3.4559999999999995,study,10,35.083,0,1,0.3,0.3,Inf,0,sub-041,28310,NA,sub-041,29,sub-29,0.3,4,0.252,35.083
29310,19,wheel,TRUE,1082,5.296999999999997,study,13,45.86,0,1,0.3,0.3,Inf,0,sub-041,28310,NA,sub-041,29,sub-29,0.3,8,0.4027,45.86
29310,8,music,TRUE,1108,2.759999999999998,study,14,48.62,0,1,0.3,0.3,Inf,0,sub-041,28310,NA,sub-041,29,sub-29,0.3,10,0.4168,48.62
29310,6,monkey,TRUE,1058,3.280000000000001,study,35,253.211,0,1,0.3,0.3,Inf,0,sub-041,28310,NA,sub-041,29,sub-29,0.3,3,0.3,253.211
29310,7,eye,TRUE,1044,2.687999999999988,study,38,264.123,0,1,0.3,0.3,Inf,0,sub-041,28310,NA,sub-041,29,sub-29,0.3,5,0.3375,264.123
29310,2,beer,TRUE,1067,3.960000000000037,study,39,268.083,0,1,0.3,0.3,Inf,0,sub-041,28310,NA,sub-041,29,sub-29,0.3,3,0.2008,268.083
29310,13,song,TRUE,1425,8.216999999999985,study,43,293.404,0,1,0.3,0.3,Inf,0,sub-041,28310,NA,sub-041,29,sub-29,0.3,9,0.4109,293.404
29310,22,fruit,TRUE,1180,8.289000000000044,study,53,349.819,0,1,0.3,0.3,Inf,0,sub-041,28310,NA,sub-041,29,sub-29,0.3,6,0.3988,349.819
29310,17,holidays,TRUE,3640,9.825000000000044,study,78,557.628,0,1,0.3,0.3,Inf,0,sub-041,28310,NA,sub-041,29,sub-29,0.3,2,0.2504,557.628
29310,5,office,TRUE,2161,5.086999999999989,study,79,562.715,0,1,0.3,0.3,Inf,0,sub-041,28310,NA,sub-041,29,sub-29,0.3,2,0.2504,562.715
29310,21,color,TRUE,5917,8.408000000000015,study,83,580.339,0,1,0.3,0.3,Inf,0,sub-041,28310,NA,sub-041,29,sub-29,0.3,2,0.2504,580.339
29310,1,enemy,TRUE,2653,6.703999999999951,study,84,587.043,0,1,0.3,0.3,Inf,0,sub-041,28310,NA,sub-041,29,sub-29,0.3,2,0.2504,587.043
29310,3,fish,TRUE,2603,5.072000000000003,study,103,703.571,0,1,0.3,0.3,Inf,0,sub-041,28310,NA,sub-041,29,sub-29,0.3,1,0.3,703.571
29310,12,book,TRUE,3435,6.26400000000001,study,104,709.835,0,1,0.3,0.3,Inf,0,sub-041,28310,NA,sub-041,29,sub-29,0.3,0,0.3,709.835
29318,12,book,TRUE,3993,5.525,study,1,5.525,0,1,0.3,0.3,Inf,0,sub-042,28318,NA,sub-042,19,sub-19,0.3,18,0.5324,5.525
29318,19,wheel,TRUE,3452,6.343,study,3,14.995,0,1,0.3,0.3,Inf,0,sub-042,28318,NA,sub-042,19,sub-19,0.3,10,0.4137,14.995
